ID;s1_asku;conscientiousness;extraversion;neuroticism;openness;agreeableness;cond_score;cond_mean_RT;corsi_mean_span;corsi_forward;corsi_backward;age;gender;profession;education;nfc;os_fta_score;os_max_span;os_number_successes;os_prop_score;s1_study_time;crt_correct_score;crt_intuitive_score;s2_study_time;s2_strategy;s2_tired;s2_attentive;s2_like_experiment;s2_effort;s2_similar_problems;s2_strategy_experience_general;s2_certainity_of_answers;s2_strategy_experience_mentalmodels;s2_strategy_experience_heuristics;s2_strategy_experience_atmosphere;s2_strategy_experience_euler;s2_strategy_experience_venn;s2_strategy_experience_monotonicity;s2_strategy_experience_verbal;s2_strategy_experience_graphical;syllog1_like;syllog1_difficulty;syllog1_effort;syllog1_exhausting;syllog1_perc_guessing;raven_mean_RT;raven_score;s3_study_time;s3_strategy;s3_tired;s3_attentive;s3_like_experiment;s3_effort;s3_similar_problems;s3_strategy_experience_general;s3_certainity_of_answers;s3_strategy_experience_mentalmodels;s3_strategy_experience_heuristics;s3_strategy_experience_atmosphere;s3_strategy_experience_euler;s3_strategy_experience_venn;s3_strategy_experience_monotonicity;s3_strategy_experience_verbal;s3_strategy_experience_graphical;s3_asku;syllog2_like;syllog2_difficulty;syllog2_effort;syllog2_exhausting;syllog2_perc_guessing;syllog2_mean_correct;syllog2_mean_RT;syllog_diff_correct_mean;syllog_diff_correct;syllog1_mean_correct;syllog1_mean_RT;syllog_mean_same;RT_diff;syllog;syllog1_correctness;syllog1_placeholder_A;syllog1_placeholder_B;syllog1_placeholder_C;syllog1_response;syllog1_conclusion;syllog1_RT;syllog1_figure;syllog1_valid_conclusion;syllog2_correctness;syllog2_placeholder_A;syllog2_placeholder_B;syllog2_placeholder_C;syllog2_response;syllog2_conclusion;syllog2_RT;syllog2_figure;syllog2_valid_conclusion;syllog2_trial;syllog1_trial;syllog1_validity;syllog1_nvc;syllog2_validity;syllog2_nvc;prior_knowledge
1;2;5;1.666667;5.333333;1.666667;3;0.5;7756;4.5;5;4;34;female;lehre_meister;fachhochschulreife;4.3125;20;4;37;0.56547619;00:29:10.517;0.5714286;0.4285714;01:01:18.379;no;54;56;39;60;2;1;56;1;1;1;1;1;1;1;1;43;82;84;76;34;29562.714;0.6428571;01:00:56.647;no;31;68;46;61;4;1;53;1;1;1;1;1;1;1;1;2.666667;57;65;72;62;41;0.578125;8507.391;0.0625;4;0.515625;12914.172;0.5625;-4406.78125;AA1;correct;Informatiker;Skifahrer;Computerspieler;alle informatiker sind computerspieler;aac;14477;1;Aac,Iac,Ica;correct;Chirurgen;Radfahrer;Gitarristen;alle chirurgen sind gitarristen;aac;14937;1;Aac,Iac,Ica;35;35;valid;no_nvc;valid;no_nvc;0
1;2;5;1.666667;5.333333;1.666667;3;0.5;7756;4.5;5;4;34;female;lehre_meister;fachhochschulreife;4.3125;20;4;37;0.56547619;00:29:10.517;0.5714286;0.4285714;01:01:18.379;no;54;56;39;60;2;1;56;1;1;1;1;1;1;1;1;43;82;84;76;34;29562.714;0.6428571;01:00:56.647;no;31;68;46;61;4;1;53;1;1;1;1;1;1;1;1;2.666667;57;65;72;62;41;0.578125;8507.391;0.0625;4;0.515625;12914.172;0.5625;-4406.78125;AA2;correct;Skifahrer;Gitarristen;Soldaten;alle soldaten sind skifahrer;aca;13011;2;Aca,Iac,Ica;correct;Techniker;Rennfahrer;Tueftler;alle tueftler sind techniker;aca;7667;2;Aca,Iac,Ica;45;20;valid;no_nvc;valid;no_nvc;0
1;2;5;1.666667;5.333333;1.666667;3;0.5;7756;4.5;5;4;34;female;lehre_meister;fachhochschulreife;4.3125;20;4;37;0.56547619;00:29:10.517;0.5714286;0.4285714;01:01:18.379;no;54;56;39;60;2;1;56;1;1;1;1;1;1;1;1;43;82;84;76;34;29562.714;0.6428571;01:00:56.647;no;31;68;46;61;4;1;53;1;1;1;1;1;1;1;1;2.666667;57;65;72;62;41;0.578125;8507.391;0.0625;4;0.515625;12914.172;0.5625;-4406.78125;AA3;false;Jogger;Verkaeufer;Erzaehler;alle erzaehler sind jogger;aca;6941;3;NVC;false;Kraftsportler;Mechaniker;Kartenspieler;alle kraftsportler sind kartenspieler;aac;19940;3;NVC;24;47;invalid;no_nvc;invalid;no_nvc;0
1;2;5;1.666667;5.333333;1.666667;3;0.5;7756;4.5;5;4;34;female;lehre_meister;fachhochschulreife;4.3125;20;4;37;0.56547619;00:29:10.517;0.5714286;0.4285714;01:01:18.379;no;54;56;39;60;2;1;56;1;1;1;1;1;1;1;1;43;82;84;76;34;29562.714;0.6428571;01:00:56.647;no;31;68;46;61;4;1;53;1;1;1;1;1;1;1;1;2.666667;57;65;72;62;41;0.578125;8507.391;0.0625;4;0.515625;12914.172;0.5625;-4406.78125;AA4;false;Kellner;Sprinter;Gitarristen;alle kellner sind gitarristen;aac;7058;4;Iac,Ica;false;Trommler;Jaeger;Schreiner;alle trommler sind schreiner;aac;8702;4;Iac,Ica;19;58;valid;no_nvc;valid;no_nvc;0
1;2;5;1.666667;5.333333;1.666667;3;0.5;7756;4.5;5;4;34;female;lehre_meister;fachhochschulreife;4.3125;20;4;37;0.56547619;00:29:10.517;0.5714286;0.4285714;01:01:18.379;no;54;56;39;60;2;1;56;1;1;1;1;1;1;1;1;43;82;84;76;34;29562.714;0.6428571;01:00:56.647;no;31;68;46;61;4;1;53;1;1;1;1;1;1;1;1;2.666667;57;65;72;62;41;0.578125;8507.391;0.0625;4;0.515625;12914.172;0.5625;-4406.78125;AE1;correct;Volleyballspieler;Techniker;Zeitungsleser;keine volleyballspieler sind zeitungsleser;eac;16521;1;Eac,Eca,Oac,Oca;correct;Heimwerker;Tennisspieler;Maurer;keine heimwerker sind maurer;eac;6811;1;Eac,Eca,Oac,Oca;23;43;valid;no_nvc;valid;no_nvc;0
1;2;5;1.666667;5.333333;1.666667;3;0.5;7756;4.5;5;4;34;female;lehre_meister;fachhochschulreife;4.3125;20;4;37;0.56547619;00:29:10.517;0.5714286;0.4285714;01:01:18.379;no;54;56;39;60;2;1;56;1;1;1;1;1;1;1;1;43;82;84;76;34;29562.714;0.6428571;01:00:56.647;no;31;68;46;61;4;1;53;1;1;1;1;1;1;1;1;2.666667;57;65;72;62;41;0.578125;8507.391;0.0625;4;0.515625;12914.172;0.5625;-4406.78125;AE2;false;Zeichner;Skifahrer;Anwaelte;keine anwaelte sind zeichner;eca;6165;2;Oac;false;Sanitaeter;Maler;Kletterer;keine kletterer sind sanitaeter;eca;9964;2;Oac;17;33;valid;no_nvc;valid;no_nvc;0
1;2;5;1.666667;5.333333;1.666667;3;0.5;7756;4.5;5;4;34;female;lehre_meister;fachhochschulreife;4.3125;20;4;37;0.56547619;00:29:10.517;0.5714286;0.4285714;01:01:18.379;no;54;56;39;60;2;1;56;1;1;1;1;1;1;1;1;43;82;84;76;34;29562.714;0.6428571;01:00:56.647;no;31;68;46;61;4;1;53;1;1;1;1;1;1;1;1;2.666667;57;65;72;62;41;0.578125;8507.391;0.0625;4;0.515625;12914.172;0.5625;-4406.78125;AE3;correct;Richter;Jaeger;Trommler;keine trommler sind richter;eca;5338;3;Eac,Eca,Oac,Oca;correct;Schneider;Kraftsportler;Autoren;keine autoren sind schneider;eca;7317;3;Eac,Eca,Oac,Oca;42;3;valid;no_nvc;valid;no_nvc;0
1;2;5;1.666667;5.333333;1.666667;3;0.5;7756;4.5;5;4;34;female;lehre_meister;fachhochschulreife;4.3125;20;4;37;0.56547619;00:29:10.517;0.5714286;0.4285714;01:01:18.379;no;54;56;39;60;2;1;56;1;1;1;1;1;1;1;1;43;82;84;76;34;29562.714;0.6428571;01:00:56.647;no;31;68;46;61;4;1;53;1;1;1;1;1;1;1;1;2.666667;57;65;72;62;41;0.578125;8507.391;0.0625;4;0.515625;12914.172;0.5625;-4406.78125;AE4;false;Erzaehler;Verkaeufer;Reiter;keine reiter sind erzaehler;eca;8103;4;Oac;false;Zeichner;Beamte;Handballspieler;keine zeichner sind handballspieler;eac;8962;4;Oac;13;10;valid;no_nvc;valid;no_nvc;0
1;2;5;1.666667;5.333333;1.666667;3;0.5;7756;4.5;5;4;34;female;lehre_meister;fachhochschulreife;4.3125;20;4;37;0.56547619;00:29:10.517;0.5714286;0.4285714;01:01:18.379;no;54;56;39;60;2;1;56;1;1;1;1;1;1;1;1;43;82;84;76;34;29562.714;0.6428571;01:00:56.647;no;31;68;46;61;4;1;53;1;1;1;1;1;1;1;1;2.666667;57;65;72;62;41;0.578125;8507.391;0.0625;4;0.515625;12914.172;0.5625;-4406.78125;AI1;correct;Chemiker;Tennisspieler;Tueftler;keine logische schlussfolgerung;nvc;125594;1;NVC;false;Ingenieure;Trompeter;Golfer;manche ingenieure sind golfer;iac;9578;1;NVC;14;25;invalid;nvc;invalid;no_nvc;0
1;2;5;1.666667;5.333333;1.666667;3;0.5;7756;4.5;5;4;34;female;lehre_meister;fachhochschulreife;4.3125;20;4;37;0.56547619;00:29:10.517;0.5714286;0.4285714;01:01:18.379;no;54;56;39;60;2;1;56;1;1;1;1;1;1;1;1;43;82;84;76;34;29562.714;0.6428571;01:00:56.647;no;31;68;46;61;4;1;53;1;1;1;1;1;1;1;1;2.666667;57;65;72;62;41;0.578125;8507.391;0.0625;4;0.515625;12914.172;0.5625;-4406.78125;AI2;false;Schlagzeuger;Elektroniker;Taenzer;keine logische schlussfolgerung;nvc;9755;2;Iac,Ica;correct;Heimwerker;Skifahrer;Soldaten;manche soldaten sind heimwerker;ica;8048;2;Iac,Ica;56;1;valid;nvc;valid;no_nvc;0
1;2;5;1.666667;5.333333;1.666667;3;0.5;7756;4.5;5;4;34;female;lehre_meister;fachhochschulreife;4.3125;20;4;37;0.56547619;00:29:10.517;0.5714286;0.4285714;01:01:18.379;no;54;56;39;60;2;1;56;1;1;1;1;1;1;1;1;43;82;84;76;34;29562.714;0.6428571;01:00:56.647;no;31;68;46;61;4;1;53;1;1;1;1;1;1;1;1;2.666667;57;65;72;62;41;0.578125;8507.391;0.0625;4;0.515625;12914.172;0.5625;-4406.78125;AI3;false;Sanitaeter;Geiger;Wanderer;manche wanderer sind nicht sanitaeter;oca;42084;3;NVC;false;Kellner;Pianisten;Rennfahrer;manche rennfahrer sind kellner;ica;24865;3;NVC;6;5;invalid;no_nvc;invalid;no_nvc;0
1;2;5;1.666667;5.333333;1.666667;3;0.5;7756;4.5;5;4;34;female;lehre_meister;fachhochschulreife;4.3125;20;4;37;0.56547619;00:29:10.517;0.5714286;0.4285714;01:01:18.379;no;54;56;39;60;2;1;56;1;1;1;1;1;1;1;1;43;82;84;76;34;29562.714;0.6428571;01:00:56.647;no;31;68;46;61;4;1;53;1;1;1;1;1;1;1;1;2.666667;57;65;72;62;41;0.578125;8507.391;0.0625;4;0.515625;12914.172;0.5625;-4406.78125;AI4;correct;Anwaelte;Wanderer;Toepfer;manche anwaelte sind toepfer;iac;5575;4;Iac,Ica;correct;Friseure;Bassisten;Kletterer;manche friseure sind kletterer;iac;8244;4;Iac,Ica;46;21;valid;no_nvc;valid;no_nvc;0
1;2;5;1.666667;5.333333;1.666667;3;0.5;7756;4.5;5;4;34;female;lehre_meister;fachhochschulreife;4.3125;20;4;37;0.56547619;00:29:10.517;0.5714286;0.4285714;01:01:18.379;no;54;56;39;60;2;1;56;1;1;1;1;1;1;1;1;43;82;84;76;34;29562.714;0.6428571;01:00:56.647;no;31;68;46;61;4;1;53;1;1;1;1;1;1;1;1;2.666667;57;65;72;62;41;0.578125;8507.391;0.0625;4;0.515625;12914.172;0.5625;-4406.78125;AO1;false;Elektroniker;Badmintonspieler;Erzaehler;manche elektroniker sind nicht erzaehler;oac;11672;1;NVC;false;Sammler;Wanderer;Verkaeufer;manche sammler sind nicht verkaeufer;oac;6362;1;NVC;30;38;invalid;no_nvc;invalid;no_nvc;0
1;2;5;1.666667;5.333333;1.666667;3;0.5;7756;4.5;5;4;34;female;lehre_meister;fachhochschulreife;4.3125;20;4;37;0.56547619;00:29:10.517;0.5714286;0.4285714;01:01:18.379;no;54;56;39;60;2;1;56;1;1;1;1;1;1;1;1;43;82;84;76;34;29562.714;0.6428571;01:00:56.647;no;31;68;46;61;4;1;53;1;1;1;1;1;1;1;1;2.666667;57;65;72;62;41;0.578125;8507.391;0.0625;4;0.515625;12914.172;0.5625;-4406.78125;AO2;correct;Handballspieler;Richter;Floetenspieler;keine logische schlussfolgerung;nvc;7146;2;NVC;false;Maurer;Skifahrer;Kartenspieler;manche kartenspieler sind nicht maurer;oca;8879;2;NVC;16;26;invalid;nvc;invalid;no_nvc;0
1;2;5;1.666667;5.333333;1.666667;3;0.5;7756;4.5;5;4;34;female;lehre_meister;fachhochschulreife;4.3125;20;4;37;0.56547619;00:29:10.517;0.5714286;0.4285714;01:01:18.379;no;54;56;39;60;2;1;56;1;1;1;1;1;1;1;1;43;82;84;76;34;29562.714;0.6428571;01:00:56.647;no;31;68;46;61;4;1;53;1;1;1;1;1;1;1;1;2.666667;57;65;72;62;41;0.578125;8507.391;0.0625;4;0.515625;12914.172;0.5625;-4406.78125;AO3;false;Dachdecker;Badmintonspieler;Schlagzeuger;keine logische schlussfolgerung;nvc;5218;3;Oca;correct;Jaeger;Piloten;Trompeter;manche trompeter sind nicht jaeger;oca;10620;3;Oca;50;28;valid;nvc;valid;no_nvc;0
1;2;5;1.666667;5.333333;1.666667;3;0.5;7756;4.5;5;4;34;female;lehre_meister;fachhochschulreife;4.3125;20;4;37;0.56547619;00:29:10.517;0.5714286;0.4285714;01:01:18.379;no;54;56;39;60;2;1;56;1;1;1;1;1;1;1;1;43;82;84;76;34;29562.714;0.6428571;01:00:56.647;no;31;68;46;61;4;1;53;1;1;1;1;1;1;1;1;2.666667;57;65;72;62;41;0.578125;8507.391;0.0625;4;0.515625;12914.172;0.5625;-4406.78125;AO4;false;Schreiner;Kraftsportler;Gaertner;keine logische schlussfolgerung;nvc;6866;4;Oac;correct;Elektroniker;Gitarristen;Angler;manche elektroniker sind nicht angler;oac;10026;4;Oac;43;6;valid;nvc;valid;no_nvc;0
1;2;5;1.666667;5.333333;1.666667;3;0.5;7756;4.5;5;4;34;female;lehre_meister;fachhochschulreife;4.3125;20;4;37;0.56547619;00:29:10.517;0.5714286;0.4285714;01:01:18.379;no;54;56;39;60;2;1;56;1;1;1;1;1;1;1;1;43;82;84;76;34;29562.714;0.6428571;01:00:56.647;no;31;68;46;61;4;1;53;1;1;1;1;1;1;1;1;2.666667;57;65;72;62;41;0.578125;8507.391;0.0625;4;0.515625;12914.172;0.5625;-4406.78125;EA1;false;Turner;Anwaelte;Camper;keine logische schlussfolgerung;nvc;6309;1;Oca;false;Wanderer;Baecker;Maler;keine wanderer sind maler;eac;7699;1;Oca;26;7;valid;nvc;valid;no_nvc;0
1;2;5;1.666667;5.333333;1.666667;3;0.5;7756;4.5;5;4;34;female;lehre_meister;fachhochschulreife;4.3125;20;4;37;0.56547619;00:29:10.517;0.5714286;0.4285714;01:01:18.379;no;54;56;39;60;2;1;56;1;1;1;1;1;1;1;1;43;82;84;76;34;29562.714;0.6428571;01:00:56.647;no;31;68;46;61;4;1;53;1;1;1;1;1;1;1;1;2.666667;57;65;72;62;41;0.578125;8507.391;0.0625;4;0.515625;12914.172;0.5625;-4406.78125;EA2;correct;Sammler;Sprinter;Richter;keine richter sind sammler;eca;16401;2;Eac,Eca,Oac,Oca;correct;Fussballer;Saenger;Juristen;keine juristen sind fussballer;eca;6932;2;Eac,Eca,Oac,Oca;34;62;valid;no_nvc;valid;no_nvc;0
1;2;5;1.666667;5.333333;1.666667;3;0.5;7756;4.5;5;4;34;female;lehre_meister;fachhochschulreife;4.3125;20;4;37;0.56547619;00:29:10.517;0.5714286;0.4285714;01:01:18.379;no;54;56;39;60;2;1;56;1;1;1;1;1;1;1;1;43;82;84;76;34;29562.714;0.6428571;01:00:56.647;no;31;68;46;61;4;1;53;1;1;1;1;1;1;1;1;2.666667;57;65;72;62;41;0.578125;8507.391;0.0625;4;0.515625;12914.172;0.5625;-4406.78125;EA3;correct;Autoren;Turner;Journalisten;keine autoren sind journalisten;eac;12743;3;Eac,Eca,Oac,Oca;correct;Kraftsportler;Optiker;Feinschmecker;keine feinschmecker sind kraftsportler;eca;8582;3;Eac,Eca,Oac,Oca;49;24;valid;no_nvc;valid;no_nvc;0
1;2;5;1.666667;5.333333;1.666667;3;0.5;7756;4.5;5;4;34;female;lehre_meister;fachhochschulreife;4.3125;20;4;37;0.56547619;00:29:10.517;0.5714286;0.4285714;01:01:18.379;no;54;56;39;60;2;1;56;1;1;1;1;1;1;1;1;43;82;84;76;34;29562.714;0.6428571;01:00:56.647;no;31;68;46;61;4;1;53;1;1;1;1;1;1;1;1;2.666667;57;65;72;62;41;0.578125;8507.391;0.0625;4;0.515625;12914.172;0.5625;-4406.78125;EA4;false;Fussballer;Optiker;Heimwerker;keine heimwerker sind fussballer;eca;5769;4;Oca;false;Fotografen;Turner;Koeche;keine fotografen sind koeche;eac;11481;4;Oca;2;52;valid;no_nvc;valid;no_nvc;0
1;2;5;1.666667;5.333333;1.666667;3;0.5;7756;4.5;5;4;34;female;lehre_meister;fachhochschulreife;4.3125;20;4;37;0.56547619;00:29:10.517;0.5714286;0.4285714;01:01:18.379;no;54;56;39;60;2;1;56;1;1;1;1;1;1;1;1;43;82;84;76;34;29562.714;0.6428571;01:00:56.647;no;31;68;46;61;4;1;53;1;1;1;1;1;1;1;1;2.666667;57;65;72;62;41;0.578125;8507.391;0.0625;4;0.515625;12914.172;0.5625;-4406.78125;EE1;false;Boxer;Toepfer;Mechaniker;keine mechaniker sind boxer;eca;7845;1;NVC;correct;Aerzte;Tennisspieler;Camper;keine logische schlussfolgerung;nvc;6299;1;NVC;63;32;invalid;no_nvc;invalid;nvc;0
1;2;5;1.666667;5.333333;1.666667;3;0.5;7756;4.5;5;4;34;female;lehre_meister;fachhochschulreife;4.3125;20;4;37;0.56547619;00:29:10.517;0.5714286;0.4285714;01:01:18.379;no;54;56;39;60;2;1;56;1;1;1;1;1;1;1;1;43;82;84;76;34;29562.714;0.6428571;01:00:56.647;no;31;68;46;61;4;1;53;1;1;1;1;1;1;1;1;2.666667;57;65;72;62;41;0.578125;8507.391;0.0625;4;0.515625;12914.172;0.5625;-4406.78125;EE2;correct;Heimwerker;Basketballspieler;Elektroniker;keine logische schlussfolgerung;nvc;5600;2;NVC;false;Soldaten;Camper;Radfahrer;keine radfahrer sind soldaten;eca;5532;2;NVC;36;48;invalid;nvc;invalid;no_nvc;0
1;2;5;1.666667;5.333333;1.666667;3;0.5;7756;4.5;5;4;34;female;lehre_meister;fachhochschulreife;4.3125;20;4;37;0.56547619;00:29:10.517;0.5714286;0.4285714;01:01:18.379;no;54;56;39;60;2;1;56;1;1;1;1;1;1;1;1;43;82;84;76;34;29562.714;0.6428571;01:00:56.647;no;31;68;46;61;4;1;53;1;1;1;1;1;1;1;1;2.666667;57;65;72;62;41;0.578125;8507.391;0.0625;4;0.515625;12914.172;0.5625;-4406.78125;EE3;correct;Informatiker;Wanderer;Erzaehler;keine logische schlussfolgerung;nvc;7608;3;NVC;correct;Volleyballspieler;Journalisten;Geiger;keine logische schlussfolgerung;nvc;9861;3;NVC;47;63;invalid;nvc;invalid;nvc;0
1;2;5;1.666667;5.333333;1.666667;3;0.5;7756;4.5;5;4;34;female;lehre_meister;fachhochschulreife;4.3125;20;4;37;0.56547619;00:29:10.517;0.5714286;0.4285714;01:01:18.379;no;54;56;39;60;2;1;56;1;1;1;1;1;1;1;1;43;82;84;76;34;29562.714;0.6428571;01:00:56.647;no;31;68;46;61;4;1;53;1;1;1;1;1;1;1;1;2.666667;57;65;72;62;41;0.578125;8507.391;0.0625;4;0.515625;12914.172;0.5625;-4406.78125;EE4;correct;Pianisten;Juristen;Boxer;keine logische schlussfolgerung;nvc;4986;4;NVC;correct;Anwaelte;Segler;Zeitungsleser;keine logische schlussfolgerung;nvc;5996;4;NVC;40;59;invalid;nvc;invalid;nvc;0
1;2;5;1.666667;5.333333;1.666667;3;0.5;7756;4.5;5;4;34;female;lehre_meister;fachhochschulreife;4.3125;20;4;37;0.56547619;00:29:10.517;0.5714286;0.4285714;01:01:18.379;no;54;56;39;60;2;1;56;1;1;1;1;1;1;1;1;43;82;84;76;34;29562.714;0.6428571;01:00:56.647;no;31;68;46;61;4;1;53;1;1;1;1;1;1;1;1;2.666667;57;65;72;62;41;0.578125;8507.391;0.0625;4;0.515625;12914.172;0.5625;-4406.78125;EI1;false;Schreiner;Handballspieler;Pianisten;keine pianisten sind schreiner;eca;21582;1;Oca;false;Journalisten;Kartenspieler;Skifahrer;keine logische schlussfolgerung;nvc;5905;1;Oca;41;22;valid;no_nvc;valid;nvc;0
1;2;5;1.666667;5.333333;1.666667;3;0.5;7756;4.5;5;4;34;female;lehre_meister;fachhochschulreife;4.3125;20;4;37;0.56547619;00:29:10.517;0.5714286;0.4285714;01:01:18.379;no;54;56;39;60;2;1;56;1;1;1;1;1;1;1;1;43;82;84;76;34;29562.714;0.6428571;01:00:56.647;no;31;68;46;61;4;1;53;1;1;1;1;1;1;1;1;2.666667;57;65;72;62;41;0.578125;8507.391;0.0625;4;0.515625;12914.172;0.5625;-4406.78125;EI2;false;Kletterer;Koeche;Schlagzeuger;keine logische schlussfolgerung;nvc;7864;2;Oca;false;Zeitungsleser;Klempner;Kletterer;keine kletterer sind zeitungsleser;eca;9535;2;Oca;32;11;valid;nvc;valid;no_nvc;0
1;2;5;1.666667;5.333333;1.666667;3;0.5;7756;4.5;5;4;34;female;lehre_meister;fachhochschulreife;4.3125;20;4;37;0.56547619;00:29:10.517;0.5714286;0.4285714;01:01:18.379;no;54;56;39;60;2;1;56;1;1;1;1;1;1;1;1;43;82;84;76;34;29562.714;0.6428571;01:00:56.647;no;31;68;46;61;4;1;53;1;1;1;1;1;1;1;1;2.666667;57;65;72;62;41;0.578125;8507.391;0.0625;4;0.515625;12914.172;0.5625;-4406.78125;EI3;false;Elektroniker;Schlagzeuger;Schlittschuhlaeufer;keine schlittschuhlaeufer sind elektroniker;eca;10644;3;Oca;false;Piloten;Handballspieler;Maler;keine logische schlussfolgerung;nvc;6075;3;Oca;59;18;valid;no_nvc;valid;nvc;0
1;2;5;1.666667;5.333333;1.666667;3;0.5;7756;4.5;5;4;34;female;lehre_meister;fachhochschulreife;4.3125;20;4;37;0.56547619;00:29:10.517;0.5714286;0.4285714;01:01:18.379;no;54;56;39;60;2;1;56;1;1;1;1;1;1;1;1;43;82;84;76;34;29562.714;0.6428571;01:00:56.647;no;31;68;46;61;4;1;53;1;1;1;1;1;1;1;1;2.666667;57;65;72;62;41;0.578125;8507.391;0.0625;4;0.515625;12914.172;0.5625;-4406.78125;EI4;false;Turner;Kartenspieler;Informatiker;keine logische schlussfolgerung;nvc;55172;4;Oca;false;Bassisten;Sprinter;Soldaten;keine logische schlussfolgerung;nvc;6321;4;Oca;52;42;valid;nvc;valid;nvc;0
1;2;5;1.666667;5.333333;1.666667;3;0.5;7756;4.5;5;4;34;female;lehre_meister;fachhochschulreife;4.3125;20;4;37;0.56547619;00:29:10.517;0.5714286;0.4285714;01:01:18.379;no;54;56;39;60;2;1;56;1;1;1;1;1;1;1;1;43;82;84;76;34;29562.714;0.6428571;01:00:56.647;no;31;68;46;61;4;1;53;1;1;1;1;1;1;1;1;2.666667;57;65;72;62;41;0.578125;8507.391;0.0625;4;0.515625;12914.172;0.5625;-4406.78125;EO1;correct;Schwimmer;Gitarristen;Sanitaeter;keine logische schlussfolgerung;nvc;7545;1;NVC;correct;Sanitaeter;Fussballer;Dichter;keine logische schlussfolgerung;nvc;6978;1;NVC;15;27;invalid;nvc;invalid;nvc;0
1;2;5;1.666667;5.333333;1.666667;3;0.5;7756;4.5;5;4;34;female;lehre_meister;fachhochschulreife;4.3125;20;4;37;0.56547619;00:29:10.517;0.5714286;0.4285714;01:01:18.379;no;54;56;39;60;2;1;56;1;1;1;1;1;1;1;1;43;82;84;76;34;29562.714;0.6428571;01:00:56.647;no;31;68;46;61;4;1;53;1;1;1;1;1;1;1;1;2.666667;57;65;72;62;41;0.578125;8507.391;0.0625;4;0.515625;12914.172;0.5625;-4406.78125;EO2;correct;Basketballspieler;Maler;Beamte;keine logische schlussfolgerung;nvc;6569;2;NVC;correct;Mechaniker;Buecherleser;Segler;keine logische schlussfolgerung;nvc;6235;2;NVC;39;15;invalid;nvc;invalid;nvc;0
1;2;5;1.666667;5.333333;1.666667;3;0.5;7756;4.5;5;4;34;female;lehre_meister;fachhochschulreife;4.3125;20;4;37;0.56547619;00:29:10.517;0.5714286;0.4285714;01:01:18.379;no;54;56;39;60;2;1;56;1;1;1;1;1;1;1;1;43;82;84;76;34;29562.714;0.6428571;01:00:56.647;no;31;68;46;61;4;1;53;1;1;1;1;1;1;1;1;2.666667;57;65;72;62;41;0.578125;8507.391;0.0625;4;0.515625;12914.172;0.5625;-4406.78125;EO3;correct;Lehrer;Trompeter;Taenzer;keine logische schlussfolgerung;nvc;5928;3;NVC;correct;Maurer;Fussballer;Musiker;keine logische schlussfolgerung;nvc;6716;3;NVC;53;57;invalid;nvc;invalid;nvc;0
1;2;5;1.666667;5.333333;1.666667;3;0.5;7756;4.5;5;4;34;female;lehre_meister;fachhochschulreife;4.3125;20;4;37;0.56547619;00:29:10.517;0.5714286;0.4285714;01:01:18.379;no;54;56;39;60;2;1;56;1;1;1;1;1;1;1;1;43;82;84;76;34;29562.714;0.6428571;01:00:56.647;no;31;68;46;61;4;1;53;1;1;1;1;1;1;1;1;2.666667;57;65;72;62;41;0.578125;8507.391;0.0625;4;0.515625;12914.172;0.5625;-4406.78125;EO4;correct;Erzieher;Camper;Turner;keine logische schlussfolgerung;nvc;5968;4;NVC;correct;Turner;Bassisten;Informatiker;keine logische schlussfolgerung;nvc;5915;4;NVC;38;45;invalid;nvc;invalid;nvc;0
1;2;5;1.666667;5.333333;1.666667;3;0.5;7756;4.5;5;4;34;female;lehre_meister;fachhochschulreife;4.3125;20;4;37;0.56547619;00:29:10.517;0.5714286;0.4285714;01:01:18.379;no;54;56;39;60;2;1;56;1;1;1;1;1;1;1;1;43;82;84;76;34;29562.714;0.6428571;01:00:56.647;no;31;68;46;61;4;1;53;1;1;1;1;1;1;1;1;2.666667;57;65;72;62;41;0.578125;8507.391;0.0625;4;0.515625;12914.172;0.5625;-4406.78125;IA1;correct;Baecker;Skifahrer;Musiker;manche baecker sind musiker;iac;9400;1;Iac,Ica;correct;Reiter;Dachdecker;Erzaehler;manche reiter sind erzaehler;iac;8791;1;Iac,Ica;61;36;valid;no_nvc;valid;no_nvc;0
1;2;5;1.666667;5.333333;1.666667;3;0.5;7756;4.5;5;4;34;female;lehre_meister;fachhochschulreife;4.3125;20;4;37;0.56547619;00:29:10.517;0.5714286;0.4285714;01:01:18.379;no;54;56;39;60;2;1;56;1;1;1;1;1;1;1;1;43;82;84;76;34;29562.714;0.6428571;01:00:56.647;no;31;68;46;61;4;1;53;1;1;1;1;1;1;1;1;2.666667;57;65;72;62;41;0.578125;8507.391;0.0625;4;0.515625;12914.172;0.5625;-4406.78125;IA2;false;Pianisten;Taucher;Elektroniker;manche elektroniker sind pianisten;ica;5865;2;NVC;false;Skifahrer;Kartenspieler;Piloten;manche piloten sind skifahrer;ica;7436;2;NVC;8;37;invalid;no_nvc;invalid;no_nvc;0
1;2;5;1.666667;5.333333;1.666667;3;0.5;7756;4.5;5;4;34;female;lehre_meister;fachhochschulreife;4.3125;20;4;37;0.56547619;00:29:10.517;0.5714286;0.4285714;01:01:18.379;no;54;56;39;60;2;1;56;1;1;1;1;1;1;1;1;43;82;84;76;34;29562.714;0.6428571;01:00:56.647;no;31;68;46;61;4;1;53;1;1;1;1;1;1;1;1;2.666667;57;65;72;62;41;0.578125;8507.391;0.0625;4;0.515625;12914.172;0.5625;-4406.78125;IA3;false;Erzieher;Autoren;Taucher;manche taucher sind erzieher;ica;10387;3;NVC;false;Schlittschuhlaeufer;Anwaelte;Trommler;manche schlittschuhlaeufer sind trommler;iac;10880;3;NVC;64;4;invalid;no_nvc;invalid;no_nvc;0
1;2;5;1.666667;5.333333;1.666667;3;0.5;7756;4.5;5;4;34;female;lehre_meister;fachhochschulreife;4.3125;20;4;37;0.56547619;00:29:10.517;0.5714286;0.4285714;01:01:18.379;no;54;56;39;60;2;1;56;1;1;1;1;1;1;1;1;43;82;84;76;34;29562.714;0.6428571;01:00:56.647;no;31;68;46;61;4;1;53;1;1;1;1;1;1;1;1;2.666667;57;65;72;62;41;0.578125;8507.391;0.0625;4;0.515625;12914.172;0.5625;-4406.78125;IA4;correct;Rennfahrer;Chemiker;Trommler;manche trommler sind rennfahrer;ica;5850;4;Iac,Ica;correct;Eishockeyspieler;Pianisten;Dachdecker;manche dachdecker sind eishockeyspieler;ica;17625;4;Iac,Ica;44;55;valid;no_nvc;valid;no_nvc;0
1;2;5;1.666667;5.333333;1.666667;3;0.5;7756;4.5;5;4;34;female;lehre_meister;fachhochschulreife;4.3125;20;4;37;0.56547619;00:29:10.517;0.5714286;0.4285714;01:01:18.379;no;54;56;39;60;2;1;56;1;1;1;1;1;1;1;1;43;82;84;76;34;29562.714;0.6428571;01:00:56.647;no;31;68;46;61;4;1;53;1;1;1;1;1;1;1;1;2.666667;57;65;72;62;41;0.578125;8507.391;0.0625;4;0.515625;12914.172;0.5625;-4406.78125;IE1;correct;Trommler;Boxer;Beamte;manche trommler sind nicht beamte;oac;69200;1;Oac;false;Friseure;Kuenstler;Surfer;keine logische schlussfolgerung;nvc;5680;1;Oac;51;64;valid;no_nvc;valid;nvc;0
1;2;5;1.666667;5.333333;1.666667;3;0.5;7756;4.5;5;4;34;female;lehre_meister;fachhochschulreife;4.3125;20;4;37;0.56547619;00:29:10.517;0.5714286;0.4285714;01:01:18.379;no;54;56;39;60;2;1;56;1;1;1;1;1;1;1;1;43;82;84;76;34;29562.714;0.6428571;01:00:56.647;no;31;68;46;61;4;1;53;1;1;1;1;1;1;1;1;2.666667;57;65;72;62;41;0.578125;8507.391;0.0625;4;0.515625;12914.172;0.5625;-4406.78125;IE2;false;Beamte;Taenzer;Tueftler;keine logische schlussfolgerung;nvc;5783;2;Oac;false;Jogger;Tueftler;Polizisten;keine logische schlussfolgerung;nvc;6444;2;Oac;28;41;valid;nvc;valid;nvc;0
1;2;5;1.666667;5.333333;1.666667;3;0.5;7756;4.5;5;4;34;female;lehre_meister;fachhochschulreife;4.3125;20;4;37;0.56547619;00:29:10.517;0.5714286;0.4285714;01:01:18.379;no;54;56;39;60;2;1;56;1;1;1;1;1;1;1;1;43;82;84;76;34;29562.714;0.6428571;01:00:56.647;no;31;68;46;61;4;1;53;1;1;1;1;1;1;1;1;2.666667;57;65;72;62;41;0.578125;8507.391;0.0625;4;0.515625;12914.172;0.5625;-4406.78125;IE3;false;Boxer;Sammler;Beamte;keine beamte sind boxer;eca;7043;3;Oac;false;Chemiker;Sprinter;Geiger;keine logische schlussfolgerung;nvc;6393;3;Oac;10;8;valid;no_nvc;valid;nvc;0
1;2;5;1.666667;5.333333;1.666667;3;0.5;7756;4.5;5;4;34;female;lehre_meister;fachhochschulreife;4.3125;20;4;37;0.56547619;00:29:10.517;0.5714286;0.4285714;01:01:18.379;no;54;56;39;60;2;1;56;1;1;1;1;1;1;1;1;43;82;84;76;34;29562.714;0.6428571;01:00:56.647;no;31;68;46;61;4;1;53;1;1;1;1;1;1;1;1;2.666667;57;65;72;62;41;0.578125;8507.391;0.0625;4;0.515625;12914.172;0.5625;-4406.78125;IE4;false;Chemiker;Badmintonspieler;Pianisten;keine logische schlussfolgerung;nvc;5131;4;Oac;false;Verkaeufer;Jaeger;Zauberer;keine logische schlussfolgerung;nvc;11100;4;Oac;4;39;valid;nvc;valid;nvc;0
1;2;5;1.666667;5.333333;1.666667;3;0.5;7756;4.5;5;4;34;female;lehre_meister;fachhochschulreife;4.3125;20;4;37;0.56547619;00:29:10.517;0.5714286;0.4285714;01:01:18.379;no;54;56;39;60;2;1;56;1;1;1;1;1;1;1;1;43;82;84;76;34;29562.714;0.6428571;01:00:56.647;no;31;68;46;61;4;1;53;1;1;1;1;1;1;1;1;2.666667;57;65;72;62;41;0.578125;8507.391;0.0625;4;0.515625;12914.172;0.5625;-4406.78125;II1;correct;Politiker;Tueftler;Reiter;keine logische schlussfolgerung;nvc;5975;1;NVC;correct;Tueftler;Surfer;Techniker;keine logische schlussfolgerung;nvc;7217;1;NVC;48;9;invalid;nvc;invalid;nvc;0
1;2;5;1.666667;5.333333;1.666667;3;0.5;7756;4.5;5;4;34;female;lehre_meister;fachhochschulreife;4.3125;20;4;37;0.56547619;00:29:10.517;0.5714286;0.4285714;01:01:18.379;no;54;56;39;60;2;1;56;1;1;1;1;1;1;1;1;43;82;84;76;34;29562.714;0.6428571;01:00:56.647;no;31;68;46;61;4;1;53;1;1;1;1;1;1;1;1;2.666667;57;65;72;62;41;0.578125;8507.391;0.0625;4;0.515625;12914.172;0.5625;-4406.78125;II2;correct;Basketballspieler;Mechaniker;Zauberer;keine logische schlussfolgerung;nvc;6157;2;NVC;correct;Anwaelte;Basketballspieler;Musiker;keine logische schlussfolgerung;nvc;5386;2;NVC;54;61;invalid;nvc;invalid;nvc;0
1;2;5;1.666667;5.333333;1.666667;3;0.5;7756;4.5;5;4;34;female;lehre_meister;fachhochschulreife;4.3125;20;4;37;0.56547619;00:29:10.517;0.5714286;0.4285714;01:01:18.379;no;54;56;39;60;2;1;56;1;1;1;1;1;1;1;1;43;82;84;76;34;29562.714;0.6428571;01:00:56.647;no;31;68;46;61;4;1;53;1;1;1;1;1;1;1;1;2.666667;57;65;72;62;41;0.578125;8507.391;0.0625;4;0.515625;12914.172;0.5625;-4406.78125;II3;correct;Zauberer;Surfer;Piloten;keine logische schlussfolgerung;nvc;6417;3;NVC;correct;Floetenspieler;Anwaelte;Boxer;keine logische schlussfolgerung;nvc;6985;3;NVC;60;46;invalid;nvc;invalid;nvc;0
1;2;5;1.666667;5.333333;1.666667;3;0.5;7756;4.5;5;4;34;female;lehre_meister;fachhochschulreife;4.3125;20;4;37;0.56547619;00:29:10.517;0.5714286;0.4285714;01:01:18.379;no;54;56;39;60;2;1;56;1;1;1;1;1;1;1;1;43;82;84;76;34;29562.714;0.6428571;01:00:56.647;no;31;68;46;61;4;1;53;1;1;1;1;1;1;1;1;2.666667;57;65;72;62;41;0.578125;8507.391;0.0625;4;0.515625;12914.172;0.5625;-4406.78125;II4;correct;Elektroniker;Erzaehler;Rennfahrer;keine logische schlussfolgerung;nvc;7985;4;NVC;correct;Bergsteiger;Erzaehler;Sanitaeter;keine logische schlussfolgerung;nvc;6348;4;NVC;33;31;invalid;nvc;invalid;nvc;0
1;2;5;1.666667;5.333333;1.666667;3;0.5;7756;4.5;5;4;34;female;lehre_meister;fachhochschulreife;4.3125;20;4;37;0.56547619;00:29:10.517;0.5714286;0.4285714;01:01:18.379;no;54;56;39;60;2;1;56;1;1;1;1;1;1;1;1;43;82;84;76;34;29562.714;0.6428571;01:00:56.647;no;31;68;46;61;4;1;53;1;1;1;1;1;1;1;1;2.666667;57;65;72;62;41;0.578125;8507.391;0.0625;4;0.515625;12914.172;0.5625;-4406.78125;IO1;false;Computerspieler;Optiker;Radfahrer;manche computerspieler sind radfahrer;iac;11374;1;NVC;correct;Kraftsportler;Pianisten;Juristen;keine logische schlussfolgerung;nvc;6905;1;NVC;9;19;invalid;no_nvc;invalid;nvc;0
1;2;5;1.666667;5.333333;1.666667;3;0.5;7756;4.5;5;4;34;female;lehre_meister;fachhochschulreife;4.3125;20;4;37;0.56547619;00:29:10.517;0.5714286;0.4285714;01:01:18.379;no;54;56;39;60;2;1;56;1;1;1;1;1;1;1;1;43;82;84;76;34;29562.714;0.6428571;01:00:56.647;no;31;68;46;61;4;1;53;1;1;1;1;1;1;1;1;2.666667;57;65;72;62;41;0.578125;8507.391;0.0625;4;0.515625;12914.172;0.5625;-4406.78125;IO2;correct;Jogger;Trompeter;Kellner;keine logische schlussfolgerung;nvc;4935;2;NVC;correct;Mechaniker;Kampfsportler;Toepfer;keine logische schlussfolgerung;nvc;6124;2;NVC;12;14;invalid;nvc;invalid;nvc;0
1;2;5;1.666667;5.333333;1.666667;3;0.5;7756;4.5;5;4;34;female;lehre_meister;fachhochschulreife;4.3125;20;4;37;0.56547619;00:29:10.517;0.5714286;0.4285714;01:01:18.379;no;54;56;39;60;2;1;56;1;1;1;1;1;1;1;1;43;82;84;76;34;29562.714;0.6428571;01:00:56.647;no;31;68;46;61;4;1;53;1;1;1;1;1;1;1;1;2.666667;57;65;72;62;41;0.578125;8507.391;0.0625;4;0.515625;12914.172;0.5625;-4406.78125;IO3;correct;Basketballspieler;Buecherleser;Maurer;keine logische schlussfolgerung;nvc;7058;3;NVC;false;Kartenspieler;Soldaten;Tennisspieler;manche kartenspieler sind tennisspieler;iac;10880;3;NVC;31;30;invalid;nvc;invalid;no_nvc;0
1;2;5;1.666667;5.333333;1.666667;3;0.5;7756;4.5;5;4;34;female;lehre_meister;fachhochschulreife;4.3125;20;4;37;0.56547619;00:29:10.517;0.5714286;0.4285714;01:01:18.379;no;54;56;39;60;2;1;56;1;1;1;1;1;1;1;1;43;82;84;76;34;29562.714;0.6428571;01:00:56.647;no;31;68;46;61;4;1;53;1;1;1;1;1;1;1;1;2.666667;57;65;72;62;41;0.578125;8507.391;0.0625;4;0.515625;12914.172;0.5625;-4406.78125;IO4;correct;Reiter;Geiger;Klempner;keine logische schlussfolgerung;nvc;9601;4;NVC;correct;Erzaehler;Taenzer;Schreiner;keine logische schlussfolgerung;nvc;6161;4;NVC;22;40;invalid;nvc;invalid;nvc;0
1;2;5;1.666667;5.333333;1.666667;3;0.5;7756;4.5;5;4;34;female;lehre_meister;fachhochschulreife;4.3125;20;4;37;0.56547619;00:29:10.517;0.5714286;0.4285714;01:01:18.379;no;54;56;39;60;2;1;56;1;1;1;1;1;1;1;1;43;82;84;76;34;29562.714;0.6428571;01:00:56.647;no;31;68;46;61;4;1;53;1;1;1;1;1;1;1;1;2.666667;57;65;72;62;41;0.578125;8507.391;0.0625;4;0.515625;12914.172;0.5625;-4406.78125;OA1;false;Richter;Schauspieler;Fussballer;manche richter sind nicht fussballer;oac;12349;1;NVC;correct;Koeche;Fotografen;Wanderer;keine logische schlussfolgerung;nvc;5698;1;NVC;25;23;invalid;no_nvc;invalid;nvc;0
1;2;5;1.666667;5.333333;1.666667;3;0.5;7756;4.5;5;4;34;female;lehre_meister;fachhochschulreife;4.3125;20;4;37;0.56547619;00:29:10.517;0.5714286;0.4285714;01:01:18.379;no;54;56;39;60;2;1;56;1;1;1;1;1;1;1;1;43;82;84;76;34;29562.714;0.6428571;01:00:56.647;no;31;68;46;61;4;1;53;1;1;1;1;1;1;1;1;2.666667;57;65;72;62;41;0.578125;8507.391;0.0625;4;0.515625;12914.172;0.5625;-4406.78125;OA2;false;Sammler;Handballspieler;Techniker;manche techniker sind nicht sammler;oca;6660;2;NVC;false;Tennisspieler;Schlagzeuger;Richter;manche richter sind nicht tennisspieler;oca;9349;2;NVC;7;12;invalid;no_nvc;invalid;no_nvc;0
1;2;5;1.666667;5.333333;1.666667;3;0.5;7756;4.5;5;4;34;female;lehre_meister;fachhochschulreife;4.3125;20;4;37;0.56547619;00:29:10.517;0.5714286;0.4285714;01:01:18.379;no;54;56;39;60;2;1;56;1;1;1;1;1;1;1;1;43;82;84;76;34;29562.714;0.6428571;01:00:56.647;no;31;68;46;61;4;1;53;1;1;1;1;1;1;1;1;2.666667;57;65;72;62;41;0.578125;8507.391;0.0625;4;0.515625;12914.172;0.5625;-4406.78125;OA3;false;Wanderer;Kartenspieler;Mechaniker;manche mechaniker sind nicht wanderer;oca;15167;3;Oac;false;Beamte;Bassisten;Fussballer;keine logische schlussfolgerung;nvc;6571;3;Oac;20;34;valid;no_nvc;valid;nvc;0
1;2;5;1.666667;5.333333;1.666667;3;0.5;7756;4.5;5;4;34;female;lehre_meister;fachhochschulreife;4.3125;20;4;37;0.56547619;00:29:10.517;0.5714286;0.4285714;01:01:18.379;no;54;56;39;60;2;1;56;1;1;1;1;1;1;1;1;43;82;84;76;34;29562.714;0.6428571;01:00:56.647;no;31;68;46;61;4;1;53;1;1;1;1;1;1;1;1;2.666667;57;65;72;62;41;0.578125;8507.391;0.0625;4;0.515625;12914.172;0.5625;-4406.78125;OA4;correct;Floetenspieler;Taenzer;Lehrer;manche lehrer sind nicht floetenspieler;oca;9391;4;Oca;correct;Schauspieler;Chemiker;Handballspieler;manche handballspieler sind nicht schauspieler;oca;8029;4;Oca;55;51;valid;no_nvc;valid;no_nvc;0
1;2;5;1.666667;5.333333;1.666667;3;0.5;7756;4.5;5;4;34;female;lehre_meister;fachhochschulreife;4.3125;20;4;37;0.56547619;00:29:10.517;0.5714286;0.4285714;01:01:18.379;no;54;56;39;60;2;1;56;1;1;1;1;1;1;1;1;43;82;84;76;34;29562.714;0.6428571;01:00:56.647;no;31;68;46;61;4;1;53;1;1;1;1;1;1;1;1;2.666667;57;65;72;62;41;0.578125;8507.391;0.0625;4;0.515625;12914.172;0.5625;-4406.78125;OE1;false;Kampfsportler;Aerzte;Buecherleser;manche buecherleser sind kampfsportler;ica;9310;1;NVC;false;Taenzer;Zeitungsleser;Sanitaeter;manche taenzer sind sanitaeter;iac;14216;1;NVC;21;54;invalid;no_nvc;invalid;no_nvc;0
1;2;5;1.666667;5.333333;1.666667;3;0.5;7756;4.5;5;4;34;female;lehre_meister;fachhochschulreife;4.3125;20;4;37;0.56547619;00:29:10.517;0.5714286;0.4285714;01:01:18.379;no;54;56;39;60;2;1;56;1;1;1;1;1;1;1;1;43;82;84;76;34;29562.714;0.6428571;01:00:56.647;no;31;68;46;61;4;1;53;1;1;1;1;1;1;1;1;2.666667;57;65;72;62;41;0.578125;8507.391;0.0625;4;0.515625;12914.172;0.5625;-4406.78125;OE2;correct;Rennfahrer;Soldaten;Toepfer;keine logische schlussfolgerung;nvc;6125;2;NVC;correct;Dichter;Rennfahrer;Juristen;keine logische schlussfolgerung;nvc;7600;2;NVC;62;53;invalid;nvc;invalid;nvc;0
1;2;5;1.666667;5.333333;1.666667;3;0.5;7756;4.5;5;4;34;female;lehre_meister;fachhochschulreife;4.3125;20;4;37;0.56547619;00:29:10.517;0.5714286;0.4285714;01:01:18.379;no;54;56;39;60;2;1;56;1;1;1;1;1;1;1;1;43;82;84;76;34;29562.714;0.6428571;01:00:56.647;no;31;68;46;61;4;1;53;1;1;1;1;1;1;1;1;2.666667;57;65;72;62;41;0.578125;8507.391;0.0625;4;0.515625;12914.172;0.5625;-4406.78125;OE3;false;Politiker;Camper;Surfer;keine surfer sind politiker;eca;5578;3;NVC;correct;Schneider;Kuenstler;Wanderer;keine logische schlussfolgerung;nvc;7588;3;NVC;27;29;invalid;no_nvc;invalid;nvc;0
1;2;5;1.666667;5.333333;1.666667;3;0.5;7756;4.5;5;4;34;female;lehre_meister;fachhochschulreife;4.3125;20;4;37;0.56547619;00:29:10.517;0.5714286;0.4285714;01:01:18.379;no;54;56;39;60;2;1;56;1;1;1;1;1;1;1;1;43;82;84;76;34;29562.714;0.6428571;01:00:56.647;no;31;68;46;61;4;1;53;1;1;1;1;1;1;1;1;2.666667;57;65;72;62;41;0.578125;8507.391;0.0625;4;0.515625;12914.172;0.5625;-4406.78125;OE4;false;Schauspieler;Beamte;Sprinter;keine schauspieler sind sprinter;eac;23997;4;NVC;correct;Computerspieler;Baecker;Rennfahrer;keine logische schlussfolgerung;nvc;7801;4;NVC;18;16;invalid;no_nvc;invalid;nvc;0
1;2;5;1.666667;5.333333;1.666667;3;0.5;7756;4.5;5;4;34;female;lehre_meister;fachhochschulreife;4.3125;20;4;37;0.56547619;00:29:10.517;0.5714286;0.4285714;01:01:18.379;no;54;56;39;60;2;1;56;1;1;1;1;1;1;1;1;43;82;84;76;34;29562.714;0.6428571;01:00:56.647;no;31;68;46;61;4;1;53;1;1;1;1;1;1;1;1;2.666667;57;65;72;62;41;0.578125;8507.391;0.0625;4;0.515625;12914.172;0.5625;-4406.78125;OI1;correct;Tennisspieler;Erzieher;Pianisten;keine logische schlussfolgerung;nvc;4922;1;NVC;correct;Erzaehler;Techniker;Surfer;keine logische schlussfolgerung;nvc;7642;1;NVC;5;56;invalid;nvc;invalid;nvc;0
1;2;5;1.666667;5.333333;1.666667;3;0.5;7756;4.5;5;4;34;female;lehre_meister;fachhochschulreife;4.3125;20;4;37;0.56547619;00:29:10.517;0.5714286;0.4285714;01:01:18.379;no;54;56;39;60;2;1;56;1;1;1;1;1;1;1;1;43;82;84;76;34;29562.714;0.6428571;01:00:56.647;no;31;68;46;61;4;1;53;1;1;1;1;1;1;1;1;2.666667;57;65;72;62;41;0.578125;8507.391;0.0625;4;0.515625;12914.172;0.5625;-4406.78125;OI2;false;Schneider;Angler;Maler;manche maler sind nicht schneider;oca;8145;2;NVC;false;Dichter;Baecker;Segler;manche segler sind nicht dichter;oca;9168;2;NVC;1;49;invalid;no_nvc;invalid;no_nvc;0
1;2;5;1.666667;5.333333;1.666667;3;0.5;7756;4.5;5;4;34;female;lehre_meister;fachhochschulreife;4.3125;20;4;37;0.56547619;00:29:10.517;0.5714286;0.4285714;01:01:18.379;no;54;56;39;60;2;1;56;1;1;1;1;1;1;1;1;43;82;84;76;34;29562.714;0.6428571;01:00:56.647;no;31;68;46;61;4;1;53;1;1;1;1;1;1;1;1;2.666667;57;65;72;62;41;0.578125;8507.391;0.0625;4;0.515625;12914.172;0.5625;-4406.78125;OI3;correct;Schlagzeuger;Chirurgen;Turner;keine logische schlussfolgerung;nvc;7642;3;NVC;correct;Klempner;Zauberer;Handballspieler;keine logische schlussfolgerung;nvc;7492;3;NVC;3;2;invalid;nvc;invalid;nvc;0
1;2;5;1.666667;5.333333;1.666667;3;0.5;7756;4.5;5;4;34;female;lehre_meister;fachhochschulreife;4.3125;20;4;37;0.56547619;00:29:10.517;0.5714286;0.4285714;01:01:18.379;no;54;56;39;60;2;1;56;1;1;1;1;1;1;1;1;43;82;84;76;34;29562.714;0.6428571;01:00:56.647;no;31;68;46;61;4;1;53;1;1;1;1;1;1;1;1;2.666667;57;65;72;62;41;0.578125;8507.391;0.0625;4;0.515625;12914.172;0.5625;-4406.78125;OI4;false;Rennfahrer;Polizisten;Erzaehler;keine erzaehler sind rennfahrer;eca;6382;4;NVC;false;Elektroniker;Wanderer;Zeitungsleser;manche zeitungsleser sind elektroniker;ica;11252;4;NVC;37;17;invalid;no_nvc;invalid;no_nvc;0
1;2;5;1.666667;5.333333;1.666667;3;0.5;7756;4.5;5;4;34;female;lehre_meister;fachhochschulreife;4.3125;20;4;37;0.56547619;00:29:10.517;0.5714286;0.4285714;01:01:18.379;no;54;56;39;60;2;1;56;1;1;1;1;1;1;1;1;43;82;84;76;34;29562.714;0.6428571;01:00:56.647;no;31;68;46;61;4;1;53;1;1;1;1;1;1;1;1;2.666667;57;65;72;62;41;0.578125;8507.391;0.0625;4;0.515625;12914.172;0.5625;-4406.78125;OO1;correct;Kletterer;Sammler;Juristen;keine logische schlussfolgerung;nvc;6825;1;NVC;correct;Bassisten;Sanitaeter;Skifahrer;keine logische schlussfolgerung;nvc;5971;1;NVC;29;13;invalid;nvc;invalid;nvc;0
1;2;5;1.666667;5.333333;1.666667;3;0.5;7756;4.5;5;4;34;female;lehre_meister;fachhochschulreife;4.3125;20;4;37;0.56547619;00:29:10.517;0.5714286;0.4285714;01:01:18.379;no;54;56;39;60;2;1;56;1;1;1;1;1;1;1;1;43;82;84;76;34;29562.714;0.6428571;01:00:56.647;no;31;68;46;61;4;1;53;1;1;1;1;1;1;1;1;2.666667;57;65;72;62;41;0.578125;8507.391;0.0625;4;0.515625;12914.172;0.5625;-4406.78125;OO2;false;Computerspieler;Surfer;Dachdecker;manche dachdecker sind nicht computerspieler;oca;30103;2;NVC;correct;Reiter;Richter;Autoren;keine logische schlussfolgerung;nvc;6268;2;NVC;57;60;invalid;no_nvc;invalid;nvc;0
1;2;5;1.666667;5.333333;1.666667;3;0.5;7756;4.5;5;4;34;female;lehre_meister;fachhochschulreife;4.3125;20;4;37;0.56547619;00:29:10.517;0.5714286;0.4285714;01:01:18.379;no;54;56;39;60;2;1;56;1;1;1;1;1;1;1;1;43;82;84;76;34;29562.714;0.6428571;01:00:56.647;no;31;68;46;61;4;1;53;1;1;1;1;1;1;1;1;2.666667;57;65;72;62;41;0.578125;8507.391;0.0625;4;0.515625;12914.172;0.5625;-4406.78125;OO3;correct;Polizisten;Zeichner;Rennfahrer;keine logische schlussfolgerung;nvc;7059;3;NVC;correct;Badmintonspieler;Beamte;Gitarristen;keine logische schlussfolgerung;nvc;6361;3;NVC;11;50;invalid;nvc;invalid;nvc;0
1;2;5;1.666667;5.333333;1.666667;3;0.5;7756;4.5;5;4;34;female;lehre_meister;fachhochschulreife;4.3125;20;4;37;0.56547619;00:29:10.517;0.5714286;0.4285714;01:01:18.379;no;54;56;39;60;2;1;56;1;1;1;1;1;1;1;1;43;82;84;76;34;29562.714;0.6428571;01:00:56.647;no;31;68;46;61;4;1;53;1;1;1;1;1;1;1;1;2.666667;57;65;72;62;41;0.578125;8507.391;0.0625;4;0.515625;12914.172;0.5625;-4406.78125;OO4;correct;Chirurgen;Geiger;Bergsteiger;keine logische schlussfolgerung;nvc;8634;4;NVC;correct;Bassisten;Ingenieure;Kletterer;keine logische schlussfolgerung;nvc;6128;4;NVC;58;44;invalid;nvc;invalid;nvc;0
2;3.333333;5;1;6.666667;5.333333;6;0.625;6767.625;5.5;6;5;20;female;ausbildung_student;abitur;4.375;9;3;31;0.49193122;00:29:43.869;0.4285714;0.4285714;01:02:15.106;yes;55;75;65;70;2;2;57;1;1;1;1;1;2;1;1;25;93;65;85;45;31636.929;0.6428571;00:52:59.786;yes;25;65;70;65;2;2;55;1;1;1;1;1;3;1;1;3.666667;60;55;70;65;30;0.59375;7422;0.15625;10;0.4375;9564.375;0.5;-2142.375;AA1;correct;Skifahrer;Verkaeufer;Geiger;alle skifahrer sind geiger;aac;7990;1;Aac,Iac,Ica;correct;Gitarristen;Kletterer;Kellner;alle gitarristen sind kellner;aac;5327;1;Aac,Iac,Ica;40;44;valid;no_nvc;valid;no_nvc;0
2;3.333333;5;1;6.666667;5.333333;6;0.625;6767.625;5.5;6;5;20;female;ausbildung_student;abitur;4.375;9;3;31;0.49193122;00:29:43.869;0.4285714;0.4285714;01:02:15.106;yes;55;75;65;70;2;2;57;1;1;1;1;1;2;1;1;25;93;65;85;45;31636.929;0.6428571;00:52:59.786;yes;25;65;70;65;2;2;55;1;1;1;1;1;3;1;1;3.666667;60;55;70;65;30;0.59375;7422;0.15625;10;0.4375;9564.375;0.5;-2142.375;AA2;correct;Informatiker;Segler;Pianisten;alle pianisten sind informatiker;aca;7657;2;Aca,Iac,Ica;correct;Handballspieler;Chemiker;Zeitungsleser;alle zeitungsleser sind handballspieler;aca;9364;2;Aca,Iac,Ica;41;19;valid;no_nvc;valid;no_nvc;0
2;3.333333;5;1;6.666667;5.333333;6;0.625;6767.625;5.5;6;5;20;female;ausbildung_student;abitur;4.375;9;3;31;0.49193122;00:29:43.869;0.4285714;0.4285714;01:02:15.106;yes;55;75;65;70;2;2;57;1;1;1;1;1;2;1;1;25;93;65;85;45;31636.929;0.6428571;00:52:59.786;yes;25;65;70;65;2;2;55;1;1;1;1;1;3;1;1;3.666667;60;55;70;65;30;0.59375;7422;0.15625;10;0.4375;9564.375;0.5;-2142.375;AA3;correct;Sanitaeter;Boxer;Toepfer;keine logische schlussfolgerung;nvc;6579;3;NVC;correct;Kraftsportler;Sanitaeter;Saenger;keine logische schlussfolgerung;nvc;6418;3;NVC;13;64;invalid;nvc;invalid;nvc;0
2;3.333333;5;1;6.666667;5.333333;6;0.625;6767.625;5.5;6;5;20;female;ausbildung_student;abitur;4.375;9;3;31;0.49193122;00:29:43.869;0.4285714;0.4285714;01:02:15.106;yes;55;75;65;70;2;2;57;1;1;1;1;1;2;1;1;25;93;65;85;45;31636.929;0.6428571;00:52:59.786;yes;25;65;70;65;2;2;55;1;1;1;1;1;3;1;1;3.666667;60;55;70;65;30;0.59375;7422;0.15625;10;0.4375;9564.375;0.5;-2142.375;AA4;false;Gitarristen;Soldaten;Kletterer;alle gitarristen sind kletterer;aac;7521;4;Iac,Ica;false;Handballspieler;Soldaten;Tueftler;keine logische schlussfolgerung;nvc;5439;4;Iac,Ica;11;24;valid;no_nvc;valid;nvc;0
2;3.333333;5;1;6.666667;5.333333;6;0.625;6767.625;5.5;6;5;20;female;ausbildung_student;abitur;4.375;9;3;31;0.49193122;00:29:43.869;0.4285714;0.4285714;01:02:15.106;yes;55;75;65;70;2;2;57;1;1;1;1;1;2;1;1;25;93;65;85;45;31636.929;0.6428571;00:52:59.786;yes;25;65;70;65;2;2;55;1;1;1;1;1;3;1;1;3.666667;60;55;70;65;30;0.59375;7422;0.15625;10;0.4375;9564.375;0.5;-2142.375;AE1;correct;Baecker;Gitarristen;Golfer;keine baecker sind golfer;eac;5808;1;Eac,Eca,Oac,Oca;correct;Richter;Schwimmer;Zauberer;keine richter sind zauberer;eac;7895;1;Eac,Eca,Oac,Oca;53;17;valid;no_nvc;valid;no_nvc;0
2;3.333333;5;1;6.666667;5.333333;6;0.625;6767.625;5.5;6;5;20;female;ausbildung_student;abitur;4.375;9;3;31;0.49193122;00:29:43.869;0.4285714;0.4285714;01:02:15.106;yes;55;75;65;70;2;2;57;1;1;1;1;1;2;1;1;25;93;65;85;45;31636.929;0.6428571;00:52:59.786;yes;25;65;70;65;2;2;55;1;1;1;1;1;3;1;1;3.666667;60;55;70;65;30;0.59375;7422;0.15625;10;0.4375;9564.375;0.5;-2142.375;AE2;false;Fussballer;Heimwerker;Piloten;keine piloten sind fussballer;eca;7510;2;Oac;false;Jogger;Maler;Maurer;keine jogger sind maurer;eac;42636;2;Oac;18;60;valid;no_nvc;valid;no_nvc;0
2;3.333333;5;1;6.666667;5.333333;6;0.625;6767.625;5.5;6;5;20;female;ausbildung_student;abitur;4.375;9;3;31;0.49193122;00:29:43.869;0.4285714;0.4285714;01:02:15.106;yes;55;75;65;70;2;2;57;1;1;1;1;1;2;1;1;25;93;65;85;45;31636.929;0.6428571;00:52:59.786;yes;25;65;70;65;2;2;55;1;1;1;1;1;3;1;1;3.666667;60;55;70;65;30;0.59375;7422;0.15625;10;0.4375;9564.375;0.5;-2142.375;AE3;correct;Kartenspieler;Klempner;Badmintonspieler;keine kartenspieler sind badmintonspieler;eac;30626;3;Eac,Eca,Oac,Oca;correct;Kartenspieler;Golfer;Kellner;keine kartenspieler sind kellner;eac;6305;3;Eac,Eca,Oac,Oca;60;21;valid;no_nvc;valid;no_nvc;0
2;3.333333;5;1;6.666667;5.333333;6;0.625;6767.625;5.5;6;5;20;female;ausbildung_student;abitur;4.375;9;3;31;0.49193122;00:29:43.869;0.4285714;0.4285714;01:02:15.106;yes;55;75;65;70;2;2;57;1;1;1;1;1;2;1;1;25;93;65;85;45;31636.929;0.6428571;00:52:59.786;yes;25;65;70;65;2;2;55;1;1;1;1;1;3;1;1;3.666667;60;55;70;65;30;0.59375;7422;0.15625;10;0.4375;9564.375;0.5;-2142.375;AE4;false;Techniker;Volleyballspieler;Dichter;keine logische schlussfolgerung;nvc;6856;4;Oac;false;Trommler;Taucher;Soldaten;keine trommler sind soldaten;eac;5038;4;Oac;15;33;valid;nvc;valid;no_nvc;0
2;3.333333;5;1;6.666667;5.333333;6;0.625;6767.625;5.5;6;5;20;female;ausbildung_student;abitur;4.375;9;3;31;0.49193122;00:29:43.869;0.4285714;0.4285714;01:02:15.106;yes;55;75;65;70;2;2;57;1;1;1;1;1;2;1;1;25;93;65;85;45;31636.929;0.6428571;00:52:59.786;yes;25;65;70;65;2;2;55;1;1;1;1;1;3;1;1;3.666667;60;55;70;65;30;0.59375;7422;0.15625;10;0.4375;9564.375;0.5;-2142.375;AI1;false;Kellner;Kampfsportler;Erzaehler;manche kellner sind erzaehler;iac;6492;1;NVC;false;Mechaniker;Tueftler;Jogger;manche mechaniker sind jogger;iac;4871;1;NVC;2;46;invalid;no_nvc;invalid;no_nvc;0
2;3.333333;5;1;6.666667;5.333333;6;0.625;6767.625;5.5;6;5;20;female;ausbildung_student;abitur;4.375;9;3;31;0.49193122;00:29:43.869;0.4285714;0.4285714;01:02:15.106;yes;55;75;65;70;2;2;57;1;1;1;1;1;2;1;1;25;93;65;85;45;31636.929;0.6428571;00:52:59.786;yes;25;65;70;65;2;2;55;1;1;1;1;1;3;1;1;3.666667;60;55;70;65;30;0.59375;7422;0.15625;10;0.4375;9564.375;0.5;-2142.375;AI2;correct;Boxer;Saenger;Elektroniker;manche elektroniker sind boxer;ica;7296;2;Iac,Ica;correct;Jogger;Klempner;Schauspieler;manche schauspieler sind jogger;ica;6542;2;Iac,Ica;29;55;valid;no_nvc;valid;no_nvc;0
2;3.333333;5;1;6.666667;5.333333;6;0.625;6767.625;5.5;6;5;20;female;ausbildung_student;abitur;4.375;9;3;31;0.49193122;00:29:43.869;0.4285714;0.4285714;01:02:15.106;yes;55;75;65;70;2;2;57;1;1;1;1;1;2;1;1;25;93;65;85;45;31636.929;0.6428571;00:52:59.786;yes;25;65;70;65;2;2;55;1;1;1;1;1;3;1;1;3.666667;60;55;70;65;30;0.59375;7422;0.15625;10;0.4375;9564.375;0.5;-2142.375;AI3;false;Segler;Maler;Maurer;manche segler sind maurer;iac;6829;3;NVC;false;Dichter;Fussballer;Chirurgen;manche chirurgen sind dichter;ica;9180;3;NVC;32;27;invalid;no_nvc;invalid;no_nvc;0
2;3.333333;5;1;6.666667;5.333333;6;0.625;6767.625;5.5;6;5;20;female;ausbildung_student;abitur;4.375;9;3;31;0.49193122;00:29:43.869;0.4285714;0.4285714;01:02:15.106;yes;55;75;65;70;2;2;57;1;1;1;1;1;2;1;1;25;93;65;85;45;31636.929;0.6428571;00:52:59.786;yes;25;65;70;65;2;2;55;1;1;1;1;1;3;1;1;3.666667;60;55;70;65;30;0.59375;7422;0.15625;10;0.4375;9564.375;0.5;-2142.375;AI4;correct;Angler;Schneider;Autoren;manche angler sind autoren;iac;6427;4;Iac,Ica;correct;Pianisten;Wanderer;Sanitaeter;manche pianisten sind sanitaeter;iac;5972;4;Iac,Ica;36;48;valid;no_nvc;valid;no_nvc;0
2;3.333333;5;1;6.666667;5.333333;6;0.625;6767.625;5.5;6;5;20;female;ausbildung_student;abitur;4.375;9;3;31;0.49193122;00:29:43.869;0.4285714;0.4285714;01:02:15.106;yes;55;75;65;70;2;2;57;1;1;1;1;1;2;1;1;25;93;65;85;45;31636.929;0.6428571;00:52:59.786;yes;25;65;70;65;2;2;55;1;1;1;1;1;3;1;1;3.666667;60;55;70;65;30;0.59375;7422;0.15625;10;0.4375;9564.375;0.5;-2142.375;AO1;false;Geiger;Informatiker;Schlittschuhlaeufer;manche geiger sind nicht schlittschuhlaeufer;oac;11121;1;NVC;false;Zeichner;Schwimmer;Maurer;manche zeichner sind nicht maurer;oac;6485;1;NVC;24;25;invalid;no_nvc;invalid;no_nvc;0
2;3.333333;5;1;6.666667;5.333333;6;0.625;6767.625;5.5;6;5;20;female;ausbildung_student;abitur;4.375;9;3;31;0.49193122;00:29:43.869;0.4285714;0.4285714;01:02:15.106;yes;55;75;65;70;2;2;57;1;1;1;1;1;2;1;1;25;93;65;85;45;31636.929;0.6428571;00:52:59.786;yes;25;65;70;65;2;2;55;1;1;1;1;1;3;1;1;3.666667;60;55;70;65;30;0.59375;7422;0.15625;10;0.4375;9564.375;0.5;-2142.375;AO2;false;Taucher;Beamte;Pianisten;manche pianisten sind taucher;ica;5548;2;NVC;false;Turner;Elektroniker;Kuenstler;manche kuenstler sind nicht turner;oca;8858;2;NVC;26;58;invalid;no_nvc;invalid;no_nvc;0
2;3.333333;5;1;6.666667;5.333333;6;0.625;6767.625;5.5;6;5;20;female;ausbildung_student;abitur;4.375;9;3;31;0.49193122;00:29:43.869;0.4285714;0.4285714;01:02:15.106;yes;55;75;65;70;2;2;57;1;1;1;1;1;2;1;1;25;93;65;85;45;31636.929;0.6428571;00:52:59.786;yes;25;65;70;65;2;2;55;1;1;1;1;1;3;1;1;3.666667;60;55;70;65;30;0.59375;7422;0.15625;10;0.4375;9564.375;0.5;-2142.375;AO3;false;Sanitaeter;Musiker;Golfer;manche golfer sind sanitaeter;ica;6290;3;Oca;false;Tennisspieler;Zauberer;Mechaniker;keine logische schlussfolgerung;nvc;5699;3;Oca;55;31;valid;no_nvc;valid;nvc;0
2;3.333333;5;1;6.666667;5.333333;6;0.625;6767.625;5.5;6;5;20;female;ausbildung_student;abitur;4.375;9;3;31;0.49193122;00:29:43.869;0.4285714;0.4285714;01:02:15.106;yes;55;75;65;70;2;2;57;1;1;1;1;1;2;1;1;25;93;65;85;45;31636.929;0.6428571;00:52:59.786;yes;25;65;70;65;2;2;55;1;1;1;1;1;3;1;1;3.666667;60;55;70;65;30;0.59375;7422;0.15625;10;0.4375;9564.375;0.5;-2142.375;AO4;correct;Taucher;Lehrer;Toepfer;manche taucher sind nicht toepfer;oac;7942;4;Oac;correct;Boxer;Fotografen;Polizisten;manche boxer sind nicht polizisten;oac;5837;4;Oac;4;9;valid;no_nvc;valid;no_nvc;0
2;3.333333;5;1;6.666667;5.333333;6;0.625;6767.625;5.5;6;5;20;female;ausbildung_student;abitur;4.375;9;3;31;0.49193122;00:29:43.869;0.4285714;0.4285714;01:02:15.106;yes;55;75;65;70;2;2;57;1;1;1;1;1;2;1;1;25;93;65;85;45;31636.929;0.6428571;00:52:59.786;yes;25;65;70;65;2;2;55;1;1;1;1;1;3;1;1;3.666667;60;55;70;65;30;0.59375;7422;0.15625;10;0.4375;9564.375;0.5;-2142.375;EA1;false;Schlagzeuger;Schneider;Handballspieler;keine schlagzeuger sind handballspieler;eac;7962;1;Oca;false;Zeitungsleser;Baecker;Taucher;keine zeitungsleser sind taucher;eac;8388;1;Oca;35;12;valid;no_nvc;valid;no_nvc;0
2;3.333333;5;1;6.666667;5.333333;6;0.625;6767.625;5.5;6;5;20;female;ausbildung_student;abitur;4.375;9;3;31;0.49193122;00:29:43.869;0.4285714;0.4285714;01:02:15.106;yes;55;75;65;70;2;2;57;1;1;1;1;1;2;1;1;25;93;65;85;45;31636.929;0.6428571;00:52:59.786;yes;25;65;70;65;2;2;55;1;1;1;1;1;3;1;1;3.666667;60;55;70;65;30;0.59375;7422;0.15625;10;0.4375;9564.375;0.5;-2142.375;EA2;correct;Kellner;Rennfahrer;Trompeter;keine trompeter sind kellner;eca;5373;2;Eac,Eca,Oac,Oca;correct;Koeche;Heimwerker;Badmintonspieler;keine badmintonspieler sind koeche;eca;6735;2;Eac,Eca,Oac,Oca;31;30;valid;no_nvc;valid;no_nvc;0
2;3.333333;5;1;6.666667;5.333333;6;0.625;6767.625;5.5;6;5;20;female;ausbildung_student;abitur;4.375;9;3;31;0.49193122;00:29:43.869;0.4285714;0.4285714;01:02:15.106;yes;55;75;65;70;2;2;57;1;1;1;1;1;2;1;1;25;93;65;85;45;31636.929;0.6428571;00:52:59.786;yes;25;65;70;65;2;2;55;1;1;1;1;1;3;1;1;3.666667;60;55;70;65;30;0.59375;7422;0.15625;10;0.4375;9564.375;0.5;-2142.375;EA3;correct;Lehrer;Tennisspieler;Gaertner;keine lehrer sind gaertner;eac;5775;3;Eac,Eca,Oac,Oca;correct;Jaeger;Pianisten;Chirurgen;keine chirurgen sind jaeger;eca;8909;3;Eac,Eca,Oac,Oca;1;11;valid;no_nvc;valid;no_nvc;0
2;3.333333;5;1;6.666667;5.333333;6;0.625;6767.625;5.5;6;5;20;female;ausbildung_student;abitur;4.375;9;3;31;0.49193122;00:29:43.869;0.4285714;0.4285714;01:02:15.106;yes;55;75;65;70;2;2;57;1;1;1;1;1;2;1;1;25;93;65;85;45;31636.929;0.6428571;00:52:59.786;yes;25;65;70;65;2;2;55;1;1;1;1;1;3;1;1;3.666667;60;55;70;65;30;0.59375;7422;0.15625;10;0.4375;9564.375;0.5;-2142.375;EA4;false;Piloten;Zeichner;Jogger;keine logische schlussfolgerung;nvc;5958;4;Oca;false;Taenzer;Computerspieler;Klempner;keine klempner sind taenzer;eca;5923;4;Oca;10;52;valid;nvc;valid;no_nvc;0
2;3.333333;5;1;6.666667;5.333333;6;0.625;6767.625;5.5;6;5;20;female;ausbildung_student;abitur;4.375;9;3;31;0.49193122;00:29:43.869;0.4285714;0.4285714;01:02:15.106;yes;55;75;65;70;2;2;57;1;1;1;1;1;2;1;1;25;93;65;85;45;31636.929;0.6428571;00:52:59.786;yes;25;65;70;65;2;2;55;1;1;1;1;1;3;1;1;3.666667;60;55;70;65;30;0.59375;7422;0.15625;10;0.4375;9564.375;0.5;-2142.375;EE1;false;Wanderer;Kuenstler;Sanitaeter;manche wanderer sind nicht sanitaeter;oac;10314;1;NVC;correct;Jaeger;Polizisten;Autoren;keine logische schlussfolgerung;nvc;9026;1;NVC;27;51;invalid;no_nvc;invalid;nvc;0
2;3.333333;5;1;6.666667;5.333333;6;0.625;6767.625;5.5;6;5;20;female;ausbildung_student;abitur;4.375;9;3;31;0.49193122;00:29:43.869;0.4285714;0.4285714;01:02:15.106;yes;55;75;65;70;2;2;57;1;1;1;1;1;2;1;1;25;93;65;85;45;31636.929;0.6428571;00:52:59.786;yes;25;65;70;65;2;2;55;1;1;1;1;1;3;1;1;3.666667;60;55;70;65;30;0.59375;7422;0.15625;10;0.4375;9564.375;0.5;-2142.375;EE2;false;Segler;Computerspieler;Techniker;keine techniker sind segler;eca;5608;2;NVC;correct;Autoren;Erzieher;Handballspieler;keine logische schlussfolgerung;nvc;5196;2;NVC;30;14;invalid;no_nvc;invalid;nvc;0
2;3.333333;5;1;6.666667;5.333333;6;0.625;6767.625;5.5;6;5;20;female;ausbildung_student;abitur;4.375;9;3;31;0.49193122;00:29:43.869;0.4285714;0.4285714;01:02:15.106;yes;55;75;65;70;2;2;57;1;1;1;1;1;2;1;1;25;93;65;85;45;31636.929;0.6428571;00:52:59.786;yes;25;65;70;65;2;2;55;1;1;1;1;1;3;1;1;3.666667;60;55;70;65;30;0.59375;7422;0.15625;10;0.4375;9564.375;0.5;-2142.375;EE3;correct;Maurer;Segler;Musiker;keine logische schlussfolgerung;nvc;6053;3;NVC;correct;Badmintonspieler;Richter;Zauberer;keine logische schlussfolgerung;nvc;4938;3;NVC;6;40;invalid;nvc;invalid;nvc;0
2;3.333333;5;1;6.666667;5.333333;6;0.625;6767.625;5.5;6;5;20;female;ausbildung_student;abitur;4.375;9;3;31;0.49193122;00:29:43.869;0.4285714;0.4285714;01:02:15.106;yes;55;75;65;70;2;2;57;1;1;1;1;1;2;1;1;25;93;65;85;45;31636.929;0.6428571;00:52:59.786;yes;25;65;70;65;2;2;55;1;1;1;1;1;3;1;1;3.666667;60;55;70;65;30;0.59375;7422;0.15625;10;0.4375;9564.375;0.5;-2142.375;EE4;correct;Camper;Kletterer;Kellner;keine logische schlussfolgerung;nvc;6841;4;NVC;correct;Schlagzeuger;Angler;Journalisten;keine logische schlussfolgerung;nvc;6212;4;NVC;54;32;invalid;nvc;invalid;nvc;0
2;3.333333;5;1;6.666667;5.333333;6;0.625;6767.625;5.5;6;5;20;female;ausbildung_student;abitur;4.375;9;3;31;0.49193122;00:29:43.869;0.4285714;0.4285714;01:02:15.106;yes;55;75;65;70;2;2;57;1;1;1;1;1;2;1;1;25;93;65;85;45;31636.929;0.6428571;00:52:59.786;yes;25;65;70;65;2;2;55;1;1;1;1;1;3;1;1;3.666667;60;55;70;65;30;0.59375;7422;0.15625;10;0.4375;9564.375;0.5;-2142.375;EI1;false;Boxer;Aerzte;Maler;keine boxer sind maler;eac;10222;1;Oca;false;Bergsteiger;Polizisten;Kuenstler;keine logische schlussfolgerung;nvc;5466;1;Oca;37;35;valid;no_nvc;valid;nvc;0
2;3.333333;5;1;6.666667;5.333333;6;0.625;6767.625;5.5;6;5;20;female;ausbildung_student;abitur;4.375;9;3;31;0.49193122;00:29:43.869;0.4285714;0.4285714;01:02:15.106;yes;55;75;65;70;2;2;57;1;1;1;1;1;2;1;1;25;93;65;85;45;31636.929;0.6428571;00:52:59.786;yes;25;65;70;65;2;2;55;1;1;1;1;1;3;1;1;3.666667;60;55;70;65;30;0.59375;7422;0.15625;10;0.4375;9564.375;0.5;-2142.375;EI2;correct;Techniker;Taucher;Tueftler;manche tueftler sind nicht techniker;oca;8669;2;Oca;correct;Schneider;Pianisten;Jogger;manche jogger sind nicht schneider;oca;5806;2;Oca;22;49;valid;no_nvc;valid;no_nvc;0
2;3.333333;5;1;6.666667;5.333333;6;0.625;6767.625;5.5;6;5;20;female;ausbildung_student;abitur;4.375;9;3;31;0.49193122;00:29:43.869;0.4285714;0.4285714;01:02:15.106;yes;55;75;65;70;2;2;57;1;1;1;1;1;2;1;1;25;93;65;85;45;31636.929;0.6428571;00:52:59.786;yes;25;65;70;65;2;2;55;1;1;1;1;1;3;1;1;3.666667;60;55;70;65;30;0.59375;7422;0.15625;10;0.4375;9564.375;0.5;-2142.375;EI3;false;Rennfahrer;Kellner;Kartenspieler;keine rennfahrer sind kartenspieler;eac;11391;3;Oca;correct;Juristen;Camper;Tennisspieler;manche tennisspieler sind nicht juristen;oca;7508;3;Oca;62;1;valid;no_nvc;valid;no_nvc;0
2;3.333333;5;1;6.666667;5.333333;6;0.625;6767.625;5.5;6;5;20;female;ausbildung_student;abitur;4.375;9;3;31;0.49193122;00:29:43.869;0.4285714;0.4285714;01:02:15.106;yes;55;75;65;70;2;2;57;1;1;1;1;1;2;1;1;25;93;65;85;45;31636.929;0.6428571;00:52:59.786;yes;25;65;70;65;2;2;55;1;1;1;1;1;3;1;1;3.666667;60;55;70;65;30;0.59375;7422;0.15625;10;0.4375;9564.375;0.5;-2142.375;EI4;false;Kletterer;Chirurgen;Erzaehler;keine logische schlussfolgerung;nvc;5954;4;Oca;false;Handballspieler;Autoren;Techniker;keine logische schlussfolgerung;nvc;6275;4;Oca;38;45;valid;nvc;valid;nvc;0
2;3.333333;5;1;6.666667;5.333333;6;0.625;6767.625;5.5;6;5;20;female;ausbildung_student;abitur;4.375;9;3;31;0.49193122;00:29:43.869;0.4285714;0.4285714;01:02:15.106;yes;55;75;65;70;2;2;57;1;1;1;1;1;2;1;1;25;93;65;85;45;31636.929;0.6428571;00:52:59.786;yes;25;65;70;65;2;2;55;1;1;1;1;1;3;1;1;3.666667;60;55;70;65;30;0.59375;7422;0.15625;10;0.4375;9564.375;0.5;-2142.375;EO1;false;Trommler;Skifahrer;Chirurgen;keine trommler sind chirurgen;eac;8755;1;NVC;false;Bergsteiger;Zeichner;Optiker;alle bergsteiger sind optiker;aac;4778;1;NVC;61;2;invalid;no_nvc;invalid;no_nvc;0
2;3.333333;5;1;6.666667;5.333333;6;0.625;6767.625;5.5;6;5;20;female;ausbildung_student;abitur;4.375;9;3;31;0.49193122;00:29:43.869;0.4285714;0.4285714;01:02:15.106;yes;55;75;65;70;2;2;57;1;1;1;1;1;2;1;1;25;93;65;85;45;31636.929;0.6428571;00:52:59.786;yes;25;65;70;65;2;2;55;1;1;1;1;1;3;1;1;3.666667;60;55;70;65;30;0.59375;7422;0.15625;10;0.4375;9564.375;0.5;-2142.375;EO2;correct;Schreiner;Erzaehler;Handballspieler;keine logische schlussfolgerung;nvc;7148;2;NVC;false;Chemiker;Zeichner;Eishockeyspieler;manche eishockeyspieler sind chemiker;ica;11842;2;NVC;46;13;invalid;nvc;invalid;no_nvc;0
2;3.333333;5;1;6.666667;5.333333;6;0.625;6767.625;5.5;6;5;20;female;ausbildung_student;abitur;4.375;9;3;31;0.49193122;00:29:43.869;0.4285714;0.4285714;01:02:15.106;yes;55;75;65;70;2;2;57;1;1;1;1;1;2;1;1;25;93;65;85;45;31636.929;0.6428571;00:52:59.786;yes;25;65;70;65;2;2;55;1;1;1;1;1;3;1;1;3.666667;60;55;70;65;30;0.59375;7422;0.15625;10;0.4375;9564.375;0.5;-2142.375;EO3;correct;Koeche;Golfer;Schlagzeuger;keine logische schlussfolgerung;nvc;5416;3;NVC;correct;Trommler;Kletterer;Koeche;keine logische schlussfolgerung;nvc;6341;3;NVC;9;10;invalid;nvc;invalid;nvc;0
2;3.333333;5;1;6.666667;5.333333;6;0.625;6767.625;5.5;6;5;20;female;ausbildung_student;abitur;4.375;9;3;31;0.49193122;00:29:43.869;0.4285714;0.4285714;01:02:15.106;yes;55;75;65;70;2;2;57;1;1;1;1;1;2;1;1;25;93;65;85;45;31636.929;0.6428571;00:52:59.786;yes;25;65;70;65;2;2;55;1;1;1;1;1;3;1;1;3.666667;60;55;70;65;30;0.59375;7422;0.15625;10;0.4375;9564.375;0.5;-2142.375;EO4;correct;Lehrer;Saenger;Rennfahrer;keine logische schlussfolgerung;nvc;7425;4;NVC;correct;Anwaelte;Kartenspieler;Basketballspieler;keine logische schlussfolgerung;nvc;7210;4;NVC;47;29;invalid;nvc;invalid;nvc;0
2;3.333333;5;1;6.666667;5.333333;6;0.625;6767.625;5.5;6;5;20;female;ausbildung_student;abitur;4.375;9;3;31;0.49193122;00:29:43.869;0.4285714;0.4285714;01:02:15.106;yes;55;75;65;70;2;2;57;1;1;1;1;1;2;1;1;25;93;65;85;45;31636.929;0.6428571;00:52:59.786;yes;25;65;70;65;2;2;55;1;1;1;1;1;3;1;1;3.666667;60;55;70;65;30;0.59375;7422;0.15625;10;0.4375;9564.375;0.5;-2142.375;IA1;correct;Zeitungsleser;Wanderer;Dachdecker;manche zeitungsleser sind dachdecker;iac;7016;1;Iac,Ica;correct;Schwimmer;Verkaeufer;Kartenspieler;manche schwimmer sind kartenspieler;iac;6884;1;Iac,Ica;7;56;valid;no_nvc;valid;no_nvc;0
2;3.333333;5;1;6.666667;5.333333;6;0.625;6767.625;5.5;6;5;20;female;ausbildung_student;abitur;4.375;9;3;31;0.49193122;00:29:43.869;0.4285714;0.4285714;01:02:15.106;yes;55;75;65;70;2;2;57;1;1;1;1;1;2;1;1;25;93;65;85;45;31636.929;0.6428571;00:52:59.786;yes;25;65;70;65;2;2;55;1;1;1;1;1;3;1;1;3.666667;60;55;70;65;30;0.59375;7422;0.15625;10;0.4375;9564.375;0.5;-2142.375;IA2;false;Buecherleser;Radfahrer;Lehrer;manche lehrer sind buecherleser;ica;6143;2;NVC;false;Zeichner;Golfer;Optiker;manche optiker sind zeichner;ica;5226;2;NVC;34;28;invalid;no_nvc;invalid;no_nvc;0
2;3.333333;5;1;6.666667;5.333333;6;0.625;6767.625;5.5;6;5;20;female;ausbildung_student;abitur;4.375;9;3;31;0.49193122;00:29:43.869;0.4285714;0.4285714;01:02:15.106;yes;55;75;65;70;2;2;57;1;1;1;1;1;2;1;1;25;93;65;85;45;31636.929;0.6428571;00:52:59.786;yes;25;65;70;65;2;2;55;1;1;1;1;1;3;1;1;3.666667;60;55;70;65;30;0.59375;7422;0.15625;10;0.4375;9564.375;0.5;-2142.375;IA3;false;Chemiker;Musiker;Reiter;manche chemiker sind reiter;iac;5328;3;NVC;false;Gitarristen;Segler;Techniker;manche gitarristen sind techniker;iac;7020;3;NVC;33;61;invalid;no_nvc;invalid;no_nvc;0
2;3.333333;5;1;6.666667;5.333333;6;0.625;6767.625;5.5;6;5;20;female;ausbildung_student;abitur;4.375;9;3;31;0.49193122;00:29:43.869;0.4285714;0.4285714;01:02:15.106;yes;55;75;65;70;2;2;57;1;1;1;1;1;2;1;1;25;93;65;85;45;31636.929;0.6428571;00:52:59.786;yes;25;65;70;65;2;2;55;1;1;1;1;1;3;1;1;3.666667;60;55;70;65;30;0.59375;7422;0.15625;10;0.4375;9564.375;0.5;-2142.375;IA4;correct;Angler;Optiker;Floetenspieler;manche angler sind floetenspieler;iac;9073;4;Iac,Ica;correct;Kartenspieler;Schwimmer;Informatiker;manche informatiker sind kartenspieler;ica;7077;4;Iac,Ica;63;53;valid;no_nvc;valid;no_nvc;0
2;3.333333;5;1;6.666667;5.333333;6;0.625;6767.625;5.5;6;5;20;female;ausbildung_student;abitur;4.375;9;3;31;0.49193122;00:29:43.869;0.4285714;0.4285714;01:02:15.106;yes;55;75;65;70;2;2;57;1;1;1;1;1;2;1;1;25;93;65;85;45;31636.929;0.6428571;00:52:59.786;yes;25;65;70;65;2;2;55;1;1;1;1;1;3;1;1;3.666667;60;55;70;65;30;0.59375;7422;0.15625;10;0.4375;9564.375;0.5;-2142.375;IE1;false;Radfahrer;Informatiker;Kartenspieler;manche radfahrer sind kartenspieler;iac;10062;1;Oac;correct;Volleyballspieler;Soldaten;Computerspieler;manche volleyballspieler sind nicht computerspieler;oac;10249;1;Oac;56;38;valid;no_nvc;valid;no_nvc;0
2;3.333333;5;1;6.666667;5.333333;6;0.625;6767.625;5.5;6;5;20;female;ausbildung_student;abitur;4.375;9;3;31;0.49193122;00:29:43.869;0.4285714;0.4285714;01:02:15.106;yes;55;75;65;70;2;2;57;1;1;1;1;1;2;1;1;25;93;65;85;45;31636.929;0.6428571;00:52:59.786;yes;25;65;70;65;2;2;55;1;1;1;1;1;3;1;1;3.666667;60;55;70;65;30;0.59375;7422;0.15625;10;0.4375;9564.375;0.5;-2142.375;IE2;false;Taenzer;Computerspieler;Erzieher;keine erzieher sind taenzer;eca;6566;2;Oac;false;Journalisten;Zauberer;Fussballer;keine logische schlussfolgerung;nvc;6446;2;Oac;39;8;valid;no_nvc;valid;nvc;0
2;3.333333;5;1;6.666667;5.333333;6;0.625;6767.625;5.5;6;5;20;female;ausbildung_student;abitur;4.375;9;3;31;0.49193122;00:29:43.869;0.4285714;0.4285714;01:02:15.106;yes;55;75;65;70;2;2;57;1;1;1;1;1;2;1;1;25;93;65;85;45;31636.929;0.6428571;00:52:59.786;yes;25;65;70;65;2;2;55;1;1;1;1;1;3;1;1;3.666667;60;55;70;65;30;0.59375;7422;0.15625;10;0.4375;9564.375;0.5;-2142.375;IE3;false;Zauberer;Handballspieler;Techniker;keine techniker sind zauberer;eca;15960;3;Oac;correct;Rennfahrer;Chirurgen;Camper;manche rennfahrer sind nicht camper;oac;5881;3;Oac;48;3;valid;no_nvc;valid;no_nvc;0
2;3.333333;5;1;6.666667;5.333333;6;0.625;6767.625;5.5;6;5;20;female;ausbildung_student;abitur;4.375;9;3;31;0.49193122;00:29:43.869;0.4285714;0.4285714;01:02:15.106;yes;55;75;65;70;2;2;57;1;1;1;1;1;2;1;1;25;93;65;85;45;31636.929;0.6428571;00:52:59.786;yes;25;65;70;65;2;2;55;1;1;1;1;1;3;1;1;3.666667;60;55;70;65;30;0.59375;7422;0.15625;10;0.4375;9564.375;0.5;-2142.375;IE4;correct;Klempner;Zeitungsleser;Kraftsportler;manche klempner sind nicht kraftsportler;oac;15908;4;Oac;correct;Verkaeufer;Maler;Schlittschuhlaeufer;manche verkaeufer sind nicht schlittschuhlaeufer;oac;14725;4;Oac;16;34;valid;no_nvc;valid;no_nvc;0
2;3.333333;5;1;6.666667;5.333333;6;0.625;6767.625;5.5;6;5;20;female;ausbildung_student;abitur;4.375;9;3;31;0.49193122;00:29:43.869;0.4285714;0.4285714;01:02:15.106;yes;55;75;65;70;2;2;57;1;1;1;1;1;2;1;1;25;93;65;85;45;31636.929;0.6428571;00:52:59.786;yes;25;65;70;65;2;2;55;1;1;1;1;1;3;1;1;3.666667;60;55;70;65;30;0.59375;7422;0.15625;10;0.4375;9564.375;0.5;-2142.375;II1;false;Erzaehler;Segler;Chirurgen;manche erzaehler sind chirurgen;iac;8958;1;NVC;false;Schreiner;Jogger;Zeichner;manche schreiner sind zeichner;iac;6044;1;NVC;17;63;invalid;no_nvc;invalid;no_nvc;0
2;3.333333;5;1;6.666667;5.333333;6;0.625;6767.625;5.5;6;5;20;female;ausbildung_student;abitur;4.375;9;3;31;0.49193122;00:29:43.869;0.4285714;0.4285714;01:02:15.106;yes;55;75;65;70;2;2;57;1;1;1;1;1;2;1;1;25;93;65;85;45;31636.929;0.6428571;00:52:59.786;yes;25;65;70;65;2;2;55;1;1;1;1;1;3;1;1;3.666667;60;55;70;65;30;0.59375;7422;0.15625;10;0.4375;9564.375;0.5;-2142.375;II2;false;Kellner;Floetenspieler;Handballspieler;manche handballspieler sind kellner;ica;8082;2;NVC;correct;Badmintonspieler;Aerzte;Toepfer;keine logische schlussfolgerung;nvc;6954;2;NVC;23;22;invalid;no_nvc;invalid;nvc;0
2;3.333333;5;1;6.666667;5.333333;6;0.625;6767.625;5.5;6;5;20;female;ausbildung_student;abitur;4.375;9;3;31;0.49193122;00:29:43.869;0.4285714;0.4285714;01:02:15.106;yes;55;75;65;70;2;2;57;1;1;1;1;1;2;1;1;25;93;65;85;45;31636.929;0.6428571;00:52:59.786;yes;25;65;70;65;2;2;55;1;1;1;1;1;3;1;1;3.666667;60;55;70;65;30;0.59375;7422;0.15625;10;0.4375;9564.375;0.5;-2142.375;II3;correct;Toepfer;Kellner;Schwimmer;keine logische schlussfolgerung;nvc;15834;3;NVC;correct;Erzaehler;Taenzer;Baecker;keine logische schlussfolgerung;nvc;5655;3;NVC;50;4;invalid;nvc;invalid;nvc;0
2;3.333333;5;1;6.666667;5.333333;6;0.625;6767.625;5.5;6;5;20;female;ausbildung_student;abitur;4.375;9;3;31;0.49193122;00:29:43.869;0.4285714;0.4285714;01:02:15.106;yes;55;75;65;70;2;2;57;1;1;1;1;1;2;1;1;25;93;65;85;45;31636.929;0.6428571;00:52:59.786;yes;25;65;70;65;2;2;55;1;1;1;1;1;3;1;1;3.666667;60;55;70;65;30;0.59375;7422;0.15625;10;0.4375;9564.375;0.5;-2142.375;II4;correct;Schreiner;Wanderer;Kuenstler;keine logische schlussfolgerung;nvc;6361;4;NVC;false;Dichter;Beamte;Segler;manche dichter sind segler;iac;4676;4;NVC;12;59;invalid;nvc;invalid;no_nvc;0
2;3.333333;5;1;6.666667;5.333333;6;0.625;6767.625;5.5;6;5;20;female;ausbildung_student;abitur;4.375;9;3;31;0.49193122;00:29:43.869;0.4285714;0.4285714;01:02:15.106;yes;55;75;65;70;2;2;57;1;1;1;1;1;2;1;1;25;93;65;85;45;31636.929;0.6428571;00:52:59.786;yes;25;65;70;65;2;2;55;1;1;1;1;1;3;1;1;3.666667;60;55;70;65;30;0.59375;7422;0.15625;10;0.4375;9564.375;0.5;-2142.375;IO1;false;Schlagzeuger;Taucher;Beamte;manche schlagzeuger sind nicht beamte;oac;8996;1;NVC;false;Boxer;Dachdecker;Trommler;manche boxer sind nicht trommler;oac;6526;1;NVC;25;57;invalid;no_nvc;invalid;no_nvc;0
2;3.333333;5;1;6.666667;5.333333;6;0.625;6767.625;5.5;6;5;20;female;ausbildung_student;abitur;4.375;9;3;31;0.49193122;00:29:43.869;0.4285714;0.4285714;01:02:15.106;yes;55;75;65;70;2;2;57;1;1;1;1;1;2;1;1;25;93;65;85;45;31636.929;0.6428571;00:52:59.786;yes;25;65;70;65;2;2;55;1;1;1;1;1;3;1;1;3.666667;60;55;70;65;30;0.59375;7422;0.15625;10;0.4375;9564.375;0.5;-2142.375;IO2;false;Golfer;Autoren;Dachdecker;manche dachdecker sind golfer;ica;6883;2;NVC;correct;Feinschmecker;Piloten;Radfahrer;keine logische schlussfolgerung;nvc;5789;2;NVC;44;20;invalid;no_nvc;invalid;nvc;0
2;3.333333;5;1;6.666667;5.333333;6;0.625;6767.625;5.5;6;5;20;female;ausbildung_student;abitur;4.375;9;3;31;0.49193122;00:29:43.869;0.4285714;0.4285714;01:02:15.106;yes;55;75;65;70;2;2;57;1;1;1;1;1;2;1;1;25;93;65;85;45;31636.929;0.6428571;00:52:59.786;yes;25;65;70;65;2;2;55;1;1;1;1;1;3;1;1;3.666667;60;55;70;65;30;0.59375;7422;0.15625;10;0.4375;9564.375;0.5;-2142.375;IO3;false;Golfer;Schreiner;Zeichner;manche zeichner sind golfer;ica;5999;3;NVC;correct;Heimwerker;Schreiner;Kletterer;keine logische schlussfolgerung;nvc;5965;3;NVC;57;37;invalid;no_nvc;invalid;nvc;0
2;3.333333;5;1;6.666667;5.333333;6;0.625;6767.625;5.5;6;5;20;female;ausbildung_student;abitur;4.375;9;3;31;0.49193122;00:29:43.869;0.4285714;0.4285714;01:02:15.106;yes;55;75;65;70;2;2;57;1;1;1;1;1;2;1;1;25;93;65;85;45;31636.929;0.6428571;00:52:59.786;yes;25;65;70;65;2;2;55;1;1;1;1;1;3;1;1;3.666667;60;55;70;65;30;0.59375;7422;0.15625;10;0.4375;9564.375;0.5;-2142.375;IO4;correct;Informatiker;Reiter;Sammler;keine logische schlussfolgerung;nvc;7157;4;NVC;false;Geiger;Fussballer;Sanitaeter;manche geiger sind nicht sanitaeter;oac;6373;4;NVC;52;36;invalid;nvc;invalid;no_nvc;0
2;3.333333;5;1;6.666667;5.333333;6;0.625;6767.625;5.5;6;5;20;female;ausbildung_student;abitur;4.375;9;3;31;0.49193122;00:29:43.869;0.4285714;0.4285714;01:02:15.106;yes;55;75;65;70;2;2;57;1;1;1;1;1;2;1;1;25;93;65;85;45;31636.929;0.6428571;00:52:59.786;yes;25;65;70;65;2;2;55;1;1;1;1;1;3;1;1;3.666667;60;55;70;65;30;0.59375;7422;0.15625;10;0.4375;9564.375;0.5;-2142.375;OA1;false;Sprinter;Gaertner;Chemiker;manche sprinter sind chemiker;iac;7173;1;NVC;false;Angler;Kellner;Toepfer;manche angler sind nicht toepfer;oac;6481;1;NVC;14;47;invalid;no_nvc;invalid;no_nvc;0
2;3.333333;5;1;6.666667;5.333333;6;0.625;6767.625;5.5;6;5;20;female;ausbildung_student;abitur;4.375;9;3;31;0.49193122;00:29:43.869;0.4285714;0.4285714;01:02:15.106;yes;55;75;65;70;2;2;57;1;1;1;1;1;2;1;1;25;93;65;85;45;31636.929;0.6428571;00:52:59.786;yes;25;65;70;65;2;2;55;1;1;1;1;1;3;1;1;3.666667;60;55;70;65;30;0.59375;7422;0.15625;10;0.4375;9564.375;0.5;-2142.375;OA2;false;Klempner;Bergsteiger;Zauberer;manche zauberer sind nicht klempner;oca;8793;2;NVC;false;Sammler;Piloten;Sprinter;manche sprinter sind nicht sammler;oca;17378;2;NVC;8;18;invalid;no_nvc;invalid;no_nvc;0
2;3.333333;5;1;6.666667;5.333333;6;0.625;6767.625;5.5;6;5;20;female;ausbildung_student;abitur;4.375;9;3;31;0.49193122;00:29:43.869;0.4285714;0.4285714;01:02:15.106;yes;55;75;65;70;2;2;57;1;1;1;1;1;2;1;1;25;93;65;85;45;31636.929;0.6428571;00:52:59.786;yes;25;65;70;65;2;2;55;1;1;1;1;1;3;1;1;3.666667;60;55;70;65;30;0.59375;7422;0.15625;10;0.4375;9564.375;0.5;-2142.375;OA3;false;Piloten;Kartenspieler;Segler;manche piloten sind segler;iac;5785;3;Oac;correct;Surfer;Informatiker;Gaertner;manche surfer sind nicht gaertner;oac;7137;3;Oac;45;26;valid;no_nvc;valid;no_nvc;0
2;3.333333;5;1;6.666667;5.333333;6;0.625;6767.625;5.5;6;5;20;female;ausbildung_student;abitur;4.375;9;3;31;0.49193122;00:29:43.869;0.4285714;0.4285714;01:02:15.106;yes;55;75;65;70;2;2;57;1;1;1;1;1;2;1;1;25;93;65;85;45;31636.929;0.6428571;00:52:59.786;yes;25;65;70;65;2;2;55;1;1;1;1;1;3;1;1;3.666667;60;55;70;65;30;0.59375;7422;0.15625;10;0.4375;9564.375;0.5;-2142.375;OA4;correct;Kartenspieler;Erzieher;Kampfsportler;manche kampfsportler sind nicht kartenspieler;oca;19022;4;Oca;correct;Maurer;Reiter;Trommler;manche trommler sind nicht maurer;oca;6999;4;Oca;64;54;valid;no_nvc;valid;no_nvc;0
2;3.333333;5;1;6.666667;5.333333;6;0.625;6767.625;5.5;6;5;20;female;ausbildung_student;abitur;4.375;9;3;31;0.49193122;00:29:43.869;0.4285714;0.4285714;01:02:15.106;yes;55;75;65;70;2;2;57;1;1;1;1;1;2;1;1;25;93;65;85;45;31636.929;0.6428571;00:52:59.786;yes;25;65;70;65;2;2;55;1;1;1;1;1;3;1;1;3.666667;60;55;70;65;30;0.59375;7422;0.15625;10;0.4375;9564.375;0.5;-2142.375;OE1;false;Gitarristen;Skifahrer;Koeche;manche gitarristen sind nicht koeche;oac;9323;1;NVC;false;Golfer;Bassisten;Techniker;manche golfer sind techniker;iac;6820;1;NVC;59;39;invalid;no_nvc;invalid;no_nvc;0
2;3.333333;5;1;6.666667;5.333333;6;0.625;6767.625;5.5;6;5;20;female;ausbildung_student;abitur;4.375;9;3;31;0.49193122;00:29:43.869;0.4285714;0.4285714;01:02:15.106;yes;55;75;65;70;2;2;57;1;1;1;1;1;2;1;1;25;93;65;85;45;31636.929;0.6428571;00:52:59.786;yes;25;65;70;65;2;2;55;1;1;1;1;1;3;1;1;3.666667;60;55;70;65;30;0.59375;7422;0.15625;10;0.4375;9564.375;0.5;-2142.375;OE2;false;Dichter;Fussballer;Informatiker;manche informatiker sind dichter;ica;6394;2;NVC;correct;Elektroniker;Gitarristen;Badmintonspieler;keine logische schlussfolgerung;nvc;6310;2;NVC;49;62;invalid;no_nvc;invalid;nvc;0
2;3.333333;5;1;6.666667;5.333333;6;0.625;6767.625;5.5;6;5;20;female;ausbildung_student;abitur;4.375;9;3;31;0.49193122;00:29:43.869;0.4285714;0.4285714;01:02:15.106;yes;55;75;65;70;2;2;57;1;1;1;1;1;2;1;1;25;93;65;85;45;31636.929;0.6428571;00:52:59.786;yes;25;65;70;65;2;2;55;1;1;1;1;1;3;1;1;3.666667;60;55;70;65;30;0.59375;7422;0.15625;10;0.4375;9564.375;0.5;-2142.375;OE3;correct;Schauspieler;Segler;Chemiker;keine logische schlussfolgerung;nvc;80467;3;NVC;false;Erzieher;Dichter;Segler;manche erzieher sind segler;iac;5744;3;NVC;58;7;invalid;nvc;invalid;no_nvc;0
2;3.333333;5;1;6.666667;5.333333;6;0.625;6767.625;5.5;6;5;20;female;ausbildung_student;abitur;4.375;9;3;31;0.49193122;00:29:43.869;0.4285714;0.4285714;01:02:15.106;yes;55;75;65;70;2;2;57;1;1;1;1;1;2;1;1;25;93;65;85;45;31636.929;0.6428571;00:52:59.786;yes;25;65;70;65;2;2;55;1;1;1;1;1;3;1;1;3.666667;60;55;70;65;30;0.59375;7422;0.15625;10;0.4375;9564.375;0.5;-2142.375;OE4;correct;Polizisten;Trommler;Radfahrer;keine logische schlussfolgerung;nvc;8455;4;NVC;correct;Dachdecker;Musiker;Volleyballspieler;keine logische schlussfolgerung;nvc;5438;4;NVC;43;6;invalid;nvc;invalid;nvc;0
2;3.333333;5;1;6.666667;5.333333;6;0.625;6767.625;5.5;6;5;20;female;ausbildung_student;abitur;4.375;9;3;31;0.49193122;00:29:43.869;0.4285714;0.4285714;01:02:15.106;yes;55;75;65;70;2;2;57;1;1;1;1;1;2;1;1;25;93;65;85;45;31636.929;0.6428571;00:52:59.786;yes;25;65;70;65;2;2;55;1;1;1;1;1;3;1;1;3.666667;60;55;70;65;30;0.59375;7422;0.15625;10;0.4375;9564.375;0.5;-2142.375;OI1;false;Dachdecker;Boxer;Floetenspieler;manche dachdecker sind floetenspieler;iac;13335;1;NVC;correct;Surfer;Musiker;Verkaeufer;keine logische schlussfolgerung;nvc;5216;1;NVC;3;42;invalid;no_nvc;invalid;nvc;0
2;3.333333;5;1;6.666667;5.333333;6;0.625;6767.625;5.5;6;5;20;female;ausbildung_student;abitur;4.375;9;3;31;0.49193122;00:29:43.869;0.4285714;0.4285714;01:02:15.106;yes;55;75;65;70;2;2;57;1;1;1;1;1;2;1;1;25;93;65;85;45;31636.929;0.6428571;00:52:59.786;yes;25;65;70;65;2;2;55;1;1;1;1;1;3;1;1;3.666667;60;55;70;65;30;0.59375;7422;0.15625;10;0.4375;9564.375;0.5;-2142.375;OI2;false;Anwaelte;Gitarristen;Jogger;manche jogger sind nicht anwaelte;oca;6872;2;NVC;false;Jaeger;Erzieher;Maler;manche maler sind nicht jaeger;oca;8391;2;NVC;5;50;invalid;no_nvc;invalid;no_nvc;0
2;3.333333;5;1;6.666667;5.333333;6;0.625;6767.625;5.5;6;5;20;female;ausbildung_student;abitur;4.375;9;3;31;0.49193122;00:29:43.869;0.4285714;0.4285714;01:02:15.106;yes;55;75;65;70;2;2;57;1;1;1;1;1;2;1;1;25;93;65;85;45;31636.929;0.6428571;00:52:59.786;yes;25;65;70;65;2;2;55;1;1;1;1;1;3;1;1;3.666667;60;55;70;65;30;0.59375;7422;0.15625;10;0.4375;9564.375;0.5;-2142.375;OI3;false;Wanderer;Techniker;Feinschmecker;manche wanderer sind feinschmecker;iac;8186;3;NVC;correct;Maler;Beamte;Fussballer;keine logische schlussfolgerung;nvc;5689;3;NVC;20;41;invalid;no_nvc;invalid;nvc;0
2;3.333333;5;1;6.666667;5.333333;6;0.625;6767.625;5.5;6;5;20;female;ausbildung_student;abitur;4.375;9;3;31;0.49193122;00:29:43.869;0.4285714;0.4285714;01:02:15.106;yes;55;75;65;70;2;2;57;1;1;1;1;1;2;1;1;25;93;65;85;45;31636.929;0.6428571;00:52:59.786;yes;25;65;70;65;2;2;55;1;1;1;1;1;3;1;1;3.666667;60;55;70;65;30;0.59375;7422;0.15625;10;0.4375;9564.375;0.5;-2142.375;OI4;correct;Camper;Badmintonspieler;Friseure;keine logische schlussfolgerung;nvc;6788;4;NVC;correct;Feinschmecker;Chirurgen;Wanderer;keine logische schlussfolgerung;nvc;4709;4;NVC;42;23;invalid;nvc;invalid;nvc;0
2;3.333333;5;1;6.666667;5.333333;6;0.625;6767.625;5.5;6;5;20;female;ausbildung_student;abitur;4.375;9;3;31;0.49193122;00:29:43.869;0.4285714;0.4285714;01:02:15.106;yes;55;75;65;70;2;2;57;1;1;1;1;1;2;1;1;25;93;65;85;45;31636.929;0.6428571;00:52:59.786;yes;25;65;70;65;2;2;55;1;1;1;1;1;3;1;1;3.666667;60;55;70;65;30;0.59375;7422;0.15625;10;0.4375;9564.375;0.5;-2142.375;OO1;false;Saenger;Beamte;Angler;manche saenger sind nicht angler;oac;5046;1;NVC;correct;Taucher;Koeche;Schlagzeuger;keine logische schlussfolgerung;nvc;6108;1;NVC;51;5;invalid;no_nvc;invalid;nvc;0
2;3.333333;5;1;6.666667;5.333333;6;0.625;6767.625;5.5;6;5;20;female;ausbildung_student;abitur;4.375;9;3;31;0.49193122;00:29:43.869;0.4285714;0.4285714;01:02:15.106;yes;55;75;65;70;2;2;57;1;1;1;1;1;2;1;1;25;93;65;85;45;31636.929;0.6428571;00:52:59.786;yes;25;65;70;65;2;2;55;1;1;1;1;1;3;1;1;3.666667;60;55;70;65;30;0.59375;7422;0.15625;10;0.4375;9564.375;0.5;-2142.375;OO2;false;Anwaelte;Autoren;Turner;manche turner sind anwaelte;ica;10514;2;NVC;correct;Radfahrer;Kartenspieler;Lehrer;keine logische schlussfolgerung;nvc;6212;2;NVC;21;16;invalid;no_nvc;invalid;nvc;0
2;3.333333;5;1;6.666667;5.333333;6;0.625;6767.625;5.5;6;5;20;female;ausbildung_student;abitur;4.375;9;3;31;0.49193122;00:29:43.869;0.4285714;0.4285714;01:02:15.106;yes;55;75;65;70;2;2;57;1;1;1;1;1;2;1;1;25;93;65;85;45;31636.929;0.6428571;00:52:59.786;yes;25;65;70;65;2;2;55;1;1;1;1;1;3;1;1;3.666667;60;55;70;65;30;0.59375;7422;0.15625;10;0.4375;9564.375;0.5;-2142.375;OO3;correct;Schneider;Sprinter;Toepfer;keine logische schlussfolgerung;nvc;7287;3;NVC;correct;Wanderer;Kartenspieler;Klempner;keine logische schlussfolgerung;nvc;6227;3;NVC;19;43;invalid;nvc;invalid;nvc;0
2;3.333333;5;1;6.666667;5.333333;6;0.625;6767.625;5.5;6;5;20;female;ausbildung_student;abitur;4.375;9;3;31;0.49193122;00:29:43.869;0.4285714;0.4285714;01:02:15.106;yes;55;75;65;70;2;2;57;1;1;1;1;1;2;1;1;25;93;65;85;45;31636.929;0.6428571;00:52:59.786;yes;25;65;70;65;2;2;55;1;1;1;1;1;3;1;1;3.666667;60;55;70;65;30;0.59375;7422;0.15625;10;0.4375;9564.375;0.5;-2142.375;OO4;correct;Surfer;Politiker;Toepfer;keine logische schlussfolgerung;nvc;6998;4;NVC;correct;Maler;Dachdecker;Golfer;keine logische schlussfolgerung;nvc;6240;4;NVC;28;15;invalid;nvc;invalid;nvc;0
3;4;5;5.666667;3.333333;6.333333;5.666667;0.25;9067.25;5.5;6;5;24;female;ausbildung_student;abitur;5.0625;4;2;27;0.38558201;00:40:48.036;0.4285714;0.5714286;01:01:04.223;no;75;36;35;57;3;3;29;2;3;1;1;3;1;3;3;25;57;25;57;38;27384.857;0.4285714;00:55:50.893;no;80;29;39;37;2;3;33;2;2;1;1;3;1;3;2;4;45;53;50;53;30;0.5625;12960.297;0.125;8;0.4375;10466;0.578125;2494.29688;AA1;correct;Sanitaeter;Surfer;Tueftler;alle sanitaeter sind tueftler;aac;13315;1;Aac,Iac,Ica;correct;Kletterer;Trommler;Erzieher;alle kletterer sind erzieher;aac;9081;1;Aac,Iac,Ica;11;7;valid;no_nvc;valid;no_nvc;0
3;4;5;5.666667;3.333333;6.333333;5.666667;0.25;9067.25;5.5;6;5;24;female;ausbildung_student;abitur;5.0625;4;2;27;0.38558201;00:40:48.036;0.4285714;0.5714286;01:01:04.223;no;75;36;35;57;3;3;29;2;3;1;1;3;1;3;3;25;57;25;57;38;27384.857;0.4285714;00:55:50.893;no;80;29;39;37;2;3;33;2;2;1;1;3;1;3;2;4;45;53;50;53;30;0.5625;12960.297;0.125;8;0.4375;10466;0.578125;2494.29688;AA2;false;Chemiker;Zeitungsleser;Rennfahrer;alle chemiker sind rennfahrer;aac;5805;2;Aca,Iac,Ica;false;Techniker;Kampfsportler;Saenger;alle techniker sind saenger;aac;7543;2;Aca,Iac,Ica;17;61;valid;no_nvc;valid;no_nvc;0
3;4;5;5.666667;3.333333;6.333333;5.666667;0.25;9067.25;5.5;6;5;24;female;ausbildung_student;abitur;5.0625;4;2;27;0.38558201;00:40:48.036;0.4285714;0.5714286;01:01:04.223;no;75;36;35;57;3;3;29;2;3;1;1;3;1;3;3;25;57;25;57;38;27384.857;0.4285714;00:55:50.893;no;80;29;39;37;2;3;33;2;2;1;1;3;1;3;2;4;45;53;50;53;30;0.5625;12960.297;0.125;8;0.4375;10466;0.578125;2494.29688;AA3;false;Sprinter;Tueftler;Juristen;alle sprinter sind juristen;aac;7266;3;NVC;false;Rennfahrer;Maurer;Bassisten;alle rennfahrer sind bassisten;aac;9239;3;NVC;46;29;invalid;no_nvc;invalid;no_nvc;0
3;4;5;5.666667;3.333333;6.333333;5.666667;0.25;9067.25;5.5;6;5;24;female;ausbildung_student;abitur;5.0625;4;2;27;0.38558201;00:40:48.036;0.4285714;0.5714286;01:01:04.223;no;75;36;35;57;3;3;29;2;3;1;1;3;1;3;3;25;57;25;57;38;27384.857;0.4285714;00:55:50.893;no;80;29;39;37;2;3;33;2;2;1;1;3;1;3;2;4;45;53;50;53;30;0.5625;12960.297;0.125;8;0.4375;10466;0.578125;2494.29688;AA4;false;Toepfer;Dachdecker;Reiter;alle toepfer sind reiter;aac;11037;4;Iac,Ica;false;Golfer;Mechaniker;Toepfer;alle golfer sind toepfer;aac;8204;4;Iac,Ica;10;20;valid;no_nvc;valid;no_nvc;0
3;4;5;5.666667;3.333333;6.333333;5.666667;0.25;9067.25;5.5;6;5;24;female;ausbildung_student;abitur;5.0625;4;2;27;0.38558201;00:40:48.036;0.4285714;0.5714286;01:01:04.223;no;75;36;35;57;3;3;29;2;3;1;1;3;1;3;3;25;57;25;57;38;27384.857;0.4285714;00:55:50.893;no;80;29;39;37;2;3;33;2;2;1;1;3;1;3;2;4;45;53;50;53;30;0.5625;12960.297;0.125;8;0.4375;10466;0.578125;2494.29688;AE1;false;Reiter;Erzaehler;Aerzte;keine logische schlussfolgerung;nvc;8846;1;Eac,Eca,Oac,Oca;correct;Zauberer;Sanitaeter;Eishockeyspieler;keine zauberer sind eishockeyspieler;eac;10232;1;Eac,Eca,Oac,Oca;19;2;valid;nvc;valid;no_nvc;0
3;4;5;5.666667;3.333333;6.333333;5.666667;0.25;9067.25;5.5;6;5;24;female;ausbildung_student;abitur;5.0625;4;2;27;0.38558201;00:40:48.036;0.4285714;0.5714286;01:01:04.223;no;75;36;35;57;3;3;29;2;3;1;1;3;1;3;3;25;57;25;57;38;27384.857;0.4285714;00:55:50.893;no;80;29;39;37;2;3;33;2;2;1;1;3;1;3;2;4;45;53;50;53;30;0.5625;12960.297;0.125;8;0.4375;10466;0.578125;2494.29688;AE2;false;Piloten;Feinschmecker;Taenzer;keine taenzer sind piloten;eca;34166;2;Oac;false;Wanderer;Schneider;Sammler;keine wanderer sind sammler;eac;6166;2;Oac;56;6;valid;no_nvc;valid;no_nvc;0
3;4;5;5.666667;3.333333;6.333333;5.666667;0.25;9067.25;5.5;6;5;24;female;ausbildung_student;abitur;5.0625;4;2;27;0.38558201;00:40:48.036;0.4285714;0.5714286;01:01:04.223;no;75;36;35;57;3;3;29;2;3;1;1;3;1;3;3;25;57;25;57;38;27384.857;0.4285714;00:55:50.893;no;80;29;39;37;2;3;33;2;2;1;1;3;1;3;2;4;45;53;50;53;30;0.5625;12960.297;0.125;8;0.4375;10466;0.578125;2494.29688;AE3;correct;Elektroniker;Handballspieler;Bassisten;keine elektroniker sind bassisten;eac;11188;3;Eac,Eca,Oac,Oca;correct;Zauberer;Angler;Chemiker;keine zauberer sind chemiker;eac;10429;3;Eac,Eca,Oac,Oca;45;16;valid;no_nvc;valid;no_nvc;0
3;4;5;5.666667;3.333333;6.333333;5.666667;0.25;9067.25;5.5;6;5;24;female;ausbildung_student;abitur;5.0625;4;2;27;0.38558201;00:40:48.036;0.4285714;0.5714286;01:01:04.223;no;75;36;35;57;3;3;29;2;3;1;1;3;1;3;3;25;57;25;57;38;27384.857;0.4285714;00:55:50.893;no;80;29;39;37;2;3;33;2;2;1;1;3;1;3;2;4;45;53;50;53;30;0.5625;12960.297;0.125;8;0.4375;10466;0.578125;2494.29688;AE4;false;Tueftler;Wanderer;Richter;keine richter sind tueftler;eca;6685;4;Oac;false;Sprinter;Toepfer;Schneider;keine sprinter sind schneider;eac;10714;4;Oac;28;18;valid;no_nvc;valid;no_nvc;0
3;4;5;5.666667;3.333333;6.333333;5.666667;0.25;9067.25;5.5;6;5;24;female;ausbildung_student;abitur;5.0625;4;2;27;0.38558201;00:40:48.036;0.4285714;0.5714286;01:01:04.223;no;75;36;35;57;3;3;29;2;3;1;1;3;1;3;3;25;57;25;57;38;27384.857;0.4285714;00:55:50.893;no;80;29;39;37;2;3;33;2;2;1;1;3;1;3;2;4;45;53;50;53;30;0.5625;12960.297;0.125;8;0.4375;10466;0.578125;2494.29688;AI1;false;Bassisten;Radfahrer;Journalisten;manche bassisten sind journalisten;iac;6829;1;NVC;false;Maler;Tennisspieler;Richter;manche maler sind richter;iac;15843;1;NVC;2;51;invalid;no_nvc;invalid;no_nvc;0
3;4;5;5.666667;3.333333;6.333333;5.666667;0.25;9067.25;5.5;6;5;24;female;ausbildung_student;abitur;5.0625;4;2;27;0.38558201;00:40:48.036;0.4285714;0.5714286;01:01:04.223;no;75;36;35;57;3;3;29;2;3;1;1;3;1;3;3;25;57;25;57;38;27384.857;0.4285714;00:55:50.893;no;80;29;39;37;2;3;33;2;2;1;1;3;1;3;2;4;45;53;50;53;30;0.5625;12960.297;0.125;8;0.4375;10466;0.578125;2494.29688;AI2;correct;Radfahrer;Dichter;Lehrer;manche radfahrer sind lehrer;iac;14349;2;Iac,Ica;correct;Tennisspieler;Baecker;Heimwerker;manche tennisspieler sind heimwerker;iac;9985;2;Iac,Ica;5;47;valid;no_nvc;valid;no_nvc;0
3;4;5;5.666667;3.333333;6.333333;5.666667;0.25;9067.25;5.5;6;5;24;female;ausbildung_student;abitur;5.0625;4;2;27;0.38558201;00:40:48.036;0.4285714;0.5714286;01:01:04.223;no;75;36;35;57;3;3;29;2;3;1;1;3;1;3;3;25;57;25;57;38;27384.857;0.4285714;00:55:50.893;no;80;29;39;37;2;3;33;2;2;1;1;3;1;3;2;4;45;53;50;53;30;0.5625;12960.297;0.125;8;0.4375;10466;0.578125;2494.29688;AI3;false;Optiker;Skifahrer;Schauspieler;manche schauspieler sind optiker;ica;11356;3;NVC;false;Saenger;Verkaeufer;Taenzer;manche saenger sind taenzer;iac;10426;3;NVC;51;21;invalid;no_nvc;invalid;no_nvc;0
3;4;5;5.666667;3.333333;6.333333;5.666667;0.25;9067.25;5.5;6;5;24;female;ausbildung_student;abitur;5.0625;4;2;27;0.38558201;00:40:48.036;0.4285714;0.5714286;01:01:04.223;no;75;36;35;57;3;3;29;2;3;1;1;3;1;3;3;25;57;25;57;38;27384.857;0.4285714;00:55:50.893;no;80;29;39;37;2;3;33;2;2;1;1;3;1;3;2;4;45;53;50;53;30;0.5625;12960.297;0.125;8;0.4375;10466;0.578125;2494.29688;AI4;correct;Trommler;Chirurgen;Kampfsportler;manche kampfsportler sind trommler;ica;10459;4;Iac,Ica;correct;Schneider;Saenger;Radfahrer;manche schneider sind radfahrer;iac;6797;4;Iac,Ica;30;22;valid;no_nvc;valid;no_nvc;0
3;4;5;5.666667;3.333333;6.333333;5.666667;0.25;9067.25;5.5;6;5;24;female;ausbildung_student;abitur;5.0625;4;2;27;0.38558201;00:40:48.036;0.4285714;0.5714286;01:01:04.223;no;75;36;35;57;3;3;29;2;3;1;1;3;1;3;3;25;57;25;57;38;27384.857;0.4285714;00:55:50.893;no;80;29;39;37;2;3;33;2;2;1;1;3;1;3;2;4;45;53;50;53;30;0.5625;12960.297;0.125;8;0.4375;10466;0.578125;2494.29688;AO1;false;Informatiker;Sprinter;Gitarristen;manche informatiker sind nicht gitarristen;oac;13727;1;NVC;false;Verkaeufer;Basketballspieler;Zeitungsleser;manche verkaeufer sind nicht zeitungsleser;oac;19492;1;NVC;63;40;invalid;no_nvc;invalid;no_nvc;0
3;4;5;5.666667;3.333333;6.333333;5.666667;0.25;9067.25;5.5;6;5;24;female;ausbildung_student;abitur;5.0625;4;2;27;0.38558201;00:40:48.036;0.4285714;0.5714286;01:01:04.223;no;75;36;35;57;3;3;29;2;3;1;1;3;1;3;3;25;57;25;57;38;27384.857;0.4285714;00:55:50.893;no;80;29;39;37;2;3;33;2;2;1;1;3;1;3;2;4;45;53;50;53;30;0.5625;12960.297;0.125;8;0.4375;10466;0.578125;2494.29688;AO2;false;Bassisten;Verkaeufer;Sprinter;manche sprinter sind nicht bassisten;oca;10363;2;NVC;false;Schwimmer;Verkaeufer;Floetenspieler;manche schwimmer sind nicht floetenspieler;oac;12112;2;NVC;37;19;invalid;no_nvc;invalid;no_nvc;0
3;4;5;5.666667;3.333333;6.333333;5.666667;0.25;9067.25;5.5;6;5;24;female;ausbildung_student;abitur;5.0625;4;2;27;0.38558201;00:40:48.036;0.4285714;0.5714286;01:01:04.223;no;75;36;35;57;3;3;29;2;3;1;1;3;1;3;3;25;57;25;57;38;27384.857;0.4285714;00:55:50.893;no;80;29;39;37;2;3;33;2;2;1;1;3;1;3;2;4;45;53;50;53;30;0.5625;12960.297;0.125;8;0.4375;10466;0.578125;2494.29688;AO3;false;Verkaeufer;Golfer;Gitarristen;keine logische schlussfolgerung;nvc;8694;3;Oca;false;Koeche;Wanderer;Floetenspieler;manche koeche sind nicht floetenspieler;oac;19258;3;Oca;9;24;valid;nvc;valid;no_nvc;0
3;4;5;5.666667;3.333333;6.333333;5.666667;0.25;9067.25;5.5;6;5;24;female;ausbildung_student;abitur;5.0625;4;2;27;0.38558201;00:40:48.036;0.4285714;0.5714286;01:01:04.223;no;75;36;35;57;3;3;29;2;3;1;1;3;1;3;3;25;57;25;57;38;27384.857;0.4285714;00:55:50.893;no;80;29;39;37;2;3;33;2;2;1;1;3;1;3;2;4;45;53;50;53;30;0.5625;12960.297;0.125;8;0.4375;10466;0.578125;2494.29688;AO4;correct;Koeche;Pianisten;Schlittschuhlaeufer;manche koeche sind nicht schlittschuhlaeufer;oac;9908;4;Oac;correct;Angler;Zauberer;Ingenieure;manche angler sind nicht ingenieure;oac;17140;4;Oac;21;10;valid;no_nvc;valid;no_nvc;0
3;4;5;5.666667;3.333333;6.333333;5.666667;0.25;9067.25;5.5;6;5;24;female;ausbildung_student;abitur;5.0625;4;2;27;0.38558201;00:40:48.036;0.4285714;0.5714286;01:01:04.223;no;75;36;35;57;3;3;29;2;3;1;1;3;1;3;3;25;57;25;57;38;27384.857;0.4285714;00:55:50.893;no;80;29;39;37;2;3;33;2;2;1;1;3;1;3;2;4;45;53;50;53;30;0.5625;12960.297;0.125;8;0.4375;10466;0.578125;2494.29688;EA1;false;Informatiker;Camper;Reiter;keine informatiker sind reiter;eac;13694;1;Oca;false;Trompeter;Maurer;Kampfsportler;keine trompeter sind kampfsportler;eac;10584;1;Oca;47;13;valid;no_nvc;valid;no_nvc;0
3;4;5;5.666667;3.333333;6.333333;5.666667;0.25;9067.25;5.5;6;5;24;female;ausbildung_student;abitur;5.0625;4;2;27;0.38558201;00:40:48.036;0.4285714;0.5714286;01:01:04.223;no;75;36;35;57;3;3;29;2;3;1;1;3;1;3;3;25;57;25;57;38;27384.857;0.4285714;00:55:50.893;no;80;29;39;37;2;3;33;2;2;1;1;3;1;3;2;4;45;53;50;53;30;0.5625;12960.297;0.125;8;0.4375;10466;0.578125;2494.29688;EA2;correct;Zauberer;Badmintonspieler;Baecker;keine zauberer sind baecker;eac;6307;2;Eac,Eca,Oac,Oca;correct;Segler;Fotografen;Sanitaeter;keine segler sind sanitaeter;eac;18878;2;Eac,Eca,Oac,Oca;12;59;valid;no_nvc;valid;no_nvc;0
3;4;5;5.666667;3.333333;6.333333;5.666667;0.25;9067.25;5.5;6;5;24;female;ausbildung_student;abitur;5.0625;4;2;27;0.38558201;00:40:48.036;0.4285714;0.5714286;01:01:04.223;no;75;36;35;57;3;3;29;2;3;1;1;3;1;3;3;25;57;25;57;38;27384.857;0.4285714;00:55:50.893;no;80;29;39;37;2;3;33;2;2;1;1;3;1;3;2;4;45;53;50;53;30;0.5625;12960.297;0.125;8;0.4375;10466;0.578125;2494.29688;EA3;correct;Kuenstler;Bergsteiger;Elektroniker;keine elektroniker sind kuenstler;eca;8939;3;Eac,Eca,Oac,Oca;correct;Badmintonspieler;Mechaniker;Dichter;keine badmintonspieler sind dichter;eac;10029;3;Eac,Eca,Oac,Oca;15;12;valid;no_nvc;valid;no_nvc;0
3;4;5;5.666667;3.333333;6.333333;5.666667;0.25;9067.25;5.5;6;5;24;female;ausbildung_student;abitur;5.0625;4;2;27;0.38558201;00:40:48.036;0.4285714;0.5714286;01:01:04.223;no;75;36;35;57;3;3;29;2;3;1;1;3;1;3;3;25;57;25;57;38;27384.857;0.4285714;00:55:50.893;no;80;29;39;37;2;3;33;2;2;1;1;3;1;3;2;4;45;53;50;53;30;0.5625;12960.297;0.125;8;0.4375;10466;0.578125;2494.29688;EA4;false;Kuenstler;Eishockeyspieler;Aerzte;keine aerzte sind kuenstler;eca;8481;4;Oca;false;Polizisten;Trompeter;Taenzer;keine polizisten sind taenzer;eac;7489;4;Oca;42;9;valid;no_nvc;valid;no_nvc;0
3;4;5;5.666667;3.333333;6.333333;5.666667;0.25;9067.25;5.5;6;5;24;female;ausbildung_student;abitur;5.0625;4;2;27;0.38558201;00:40:48.036;0.4285714;0.5714286;01:01:04.223;no;75;36;35;57;3;3;29;2;3;1;1;3;1;3;3;25;57;25;57;38;27384.857;0.4285714;00:55:50.893;no;80;29;39;37;2;3;33;2;2;1;1;3;1;3;2;4;45;53;50;53;30;0.5625;12960.297;0.125;8;0.4375;10466;0.578125;2494.29688;EE1;correct;Musiker;Basketballspieler;Ingenieure;keine logische schlussfolgerung;nvc;8278;1;NVC;correct;Kellner;Gaertner;Surfer;keine logische schlussfolgerung;nvc;10532;1;NVC;3;31;invalid;nvc;invalid;nvc;0
3;4;5;5.666667;3.333333;6.333333;5.666667;0.25;9067.25;5.5;6;5;24;female;ausbildung_student;abitur;5.0625;4;2;27;0.38558201;00:40:48.036;0.4285714;0.5714286;01:01:04.223;no;75;36;35;57;3;3;29;2;3;1;1;3;1;3;3;25;57;25;57;38;27384.857;0.4285714;00:55:50.893;no;80;29;39;37;2;3;33;2;2;1;1;3;1;3;2;4;45;53;50;53;30;0.5625;12960.297;0.125;8;0.4375;10466;0.578125;2494.29688;EE2;correct;Kuenstler;Golfer;Kellner;keine logische schlussfolgerung;nvc;28466;2;NVC;correct;Maurer;Buecherleser;Handballspieler;keine logische schlussfolgerung;nvc;8003;2;NVC;32;23;invalid;nvc;invalid;nvc;0
3;4;5;5.666667;3.333333;6.333333;5.666667;0.25;9067.25;5.5;6;5;24;female;ausbildung_student;abitur;5.0625;4;2;27;0.38558201;00:40:48.036;0.4285714;0.5714286;01:01:04.223;no;75;36;35;57;3;3;29;2;3;1;1;3;1;3;3;25;57;25;57;38;27384.857;0.4285714;00:55:50.893;no;80;29;39;37;2;3;33;2;2;1;1;3;1;3;2;4;45;53;50;53;30;0.5625;12960.297;0.125;8;0.4375;10466;0.578125;2494.29688;EE3;correct;Kartenspieler;Polizisten;Sprinter;keine logische schlussfolgerung;nvc;6440;3;NVC;false;Floetenspieler;Baecker;Rennfahrer;keine floetenspieler sind rennfahrer;eac;9677;3;NVC;44;39;invalid;nvc;invalid;no_nvc;0
3;4;5;5.666667;3.333333;6.333333;5.666667;0.25;9067.25;5.5;6;5;24;female;ausbildung_student;abitur;5.0625;4;2;27;0.38558201;00:40:48.036;0.4285714;0.5714286;01:01:04.223;no;75;36;35;57;3;3;29;2;3;1;1;3;1;3;3;25;57;25;57;38;27384.857;0.4285714;00:55:50.893;no;80;29;39;37;2;3;33;2;2;1;1;3;1;3;2;4;45;53;50;53;30;0.5625;12960.297;0.125;8;0.4375;10466;0.578125;2494.29688;EE4;correct;Geiger;Koeche;Boxer;keine logische schlussfolgerung;nvc;7853;4;NVC;false;Volleyballspieler;Koeche;Kuenstler;keine volleyballspieler sind kuenstler;eac;15491;4;NVC;20;1;invalid;nvc;invalid;no_nvc;0
3;4;5;5.666667;3.333333;6.333333;5.666667;0.25;9067.25;5.5;6;5;24;female;ausbildung_student;abitur;5.0625;4;2;27;0.38558201;00:40:48.036;0.4285714;0.5714286;01:01:04.223;no;75;36;35;57;3;3;29;2;3;1;1;3;1;3;3;25;57;25;57;38;27384.857;0.4285714;00:55:50.893;no;80;29;39;37;2;3;33;2;2;1;1;3;1;3;2;4;45;53;50;53;30;0.5625;12960.297;0.125;8;0.4375;10466;0.578125;2494.29688;EI1;correct;Friseure;Kletterer;Gitarristen;manche gitarristen sind nicht friseure;oca;8171;1;Oca;correct;Friseure;Kletterer;Toepfer;manche toepfer sind nicht friseure;oca;8832;1;Oca;26;43;valid;no_nvc;valid;no_nvc;0
3;4;5;5.666667;3.333333;6.333333;5.666667;0.25;9067.25;5.5;6;5;24;female;ausbildung_student;abitur;5.0625;4;2;27;0.38558201;00:40:48.036;0.4285714;0.5714286;01:01:04.223;no;75;36;35;57;3;3;29;2;3;1;1;3;1;3;3;25;57;25;57;38;27384.857;0.4285714;00:55:50.893;no;80;29;39;37;2;3;33;2;2;1;1;3;1;3;2;4;45;53;50;53;30;0.5625;12960.297;0.125;8;0.4375;10466;0.578125;2494.29688;EI2;false;Boxer;Tueftler;Soldaten;keine logische schlussfolgerung;nvc;7765;2;Oca;correct;Basketballspieler;Bassisten;Chirurgen;manche chirurgen sind nicht basketballspieler.;oca;101780;2;Oca;6;37;valid;nvc;valid;no_nvc;0
3;4;5;5.666667;3.333333;6.333333;5.666667;0.25;9067.25;5.5;6;5;24;female;ausbildung_student;abitur;5.0625;4;2;27;0.38558201;00:40:48.036;0.4285714;0.5714286;01:01:04.223;no;75;36;35;57;3;3;29;2;3;1;1;3;1;3;3;25;57;25;57;38;27384.857;0.4285714;00:55:50.893;no;80;29;39;37;2;3;33;2;2;1;1;3;1;3;2;4;45;53;50;53;30;0.5625;12960.297;0.125;8;0.4375;10466;0.578125;2494.29688;EI3;false;Verkaeufer;Taucher;Fotografen;keine logische schlussfolgerung;nvc;7510;3;Oca;false;Bergsteiger;Informatiker;Feinschmecker;keine logische schlussfolgerung;nvc;6992;3;Oca;36;26;valid;nvc;valid;nvc;0
3;4;5;5.666667;3.333333;6.333333;5.666667;0.25;9067.25;5.5;6;5;24;female;ausbildung_student;abitur;5.0625;4;2;27;0.38558201;00:40:48.036;0.4285714;0.5714286;01:01:04.223;no;75;36;35;57;3;3;29;2;3;1;1;3;1;3;3;25;57;25;57;38;27384.857;0.4285714;00:55:50.893;no;80;29;39;37;2;3;33;2;2;1;1;3;1;3;2;4;45;53;50;53;30;0.5625;12960.297;0.125;8;0.4375;10466;0.578125;2494.29688;EI4;false;Tueftler;Surfer;Chirurgen;keine logische schlussfolgerung;nvc;12157;4;Oca;correct;Autoren;Politiker;Skifahrer;manche skifahrer sind nicht autoren;oca;13404;4;Oca;8;52;valid;nvc;valid;no_nvc;0
3;4;5;5.666667;3.333333;6.333333;5.666667;0.25;9067.25;5.5;6;5;24;female;ausbildung_student;abitur;5.0625;4;2;27;0.38558201;00:40:48.036;0.4285714;0.5714286;01:01:04.223;no;75;36;35;57;3;3;29;2;3;1;1;3;1;3;3;25;57;25;57;38;27384.857;0.4285714;00:55:50.893;no;80;29;39;37;2;3;33;2;2;1;1;3;1;3;2;4;45;53;50;53;30;0.5625;12960.297;0.125;8;0.4375;10466;0.578125;2494.29688;EO1;correct;Skifahrer;Erzaehler;Mechaniker;keine logische schlussfolgerung;nvc;11135;1;NVC;correct;Tueftler;Sanitaeter;Skifahrer;keine logische schlussfolgerung;nvc;9053;1;NVC;31;50;invalid;nvc;invalid;nvc;0
3;4;5;5.666667;3.333333;6.333333;5.666667;0.25;9067.25;5.5;6;5;24;female;ausbildung_student;abitur;5.0625;4;2;27;0.38558201;00:40:48.036;0.4285714;0.5714286;01:01:04.223;no;75;36;35;57;3;3;29;2;3;1;1;3;1;3;3;25;57;25;57;38;27384.857;0.4285714;00:55:50.893;no;80;29;39;37;2;3;33;2;2;1;1;3;1;3;2;4;45;53;50;53;30;0.5625;12960.297;0.125;8;0.4375;10466;0.578125;2494.29688;EO2;correct;Gitarristen;Sprinter;Friseure;keine logische schlussfolgerung;nvc;5310;2;NVC;correct;Toepfer;Baecker;Jogger;keine logische schlussfolgerung;nvc;6872;2;NVC;25;53;invalid;nvc;invalid;nvc;0
3;4;5;5.666667;3.333333;6.333333;5.666667;0.25;9067.25;5.5;6;5;24;female;ausbildung_student;abitur;5.0625;4;2;27;0.38558201;00:40:48.036;0.4285714;0.5714286;01:01:04.223;no;75;36;35;57;3;3;29;2;3;1;1;3;1;3;3;25;57;25;57;38;27384.857;0.4285714;00:55:50.893;no;80;29;39;37;2;3;33;2;2;1;1;3;1;3;2;4;45;53;50;53;30;0.5625;12960.297;0.125;8;0.4375;10466;0.578125;2494.29688;EO3;correct;Computerspieler;Schwimmer;Chirurgen;keine logische schlussfolgerung;nvc;7077;3;NVC;correct;Zeichner;Angler;Friseure;keine logische schlussfolgerung;nvc;8170;3;NVC;24;58;invalid;nvc;invalid;nvc;0
3;4;5;5.666667;3.333333;6.333333;5.666667;0.25;9067.25;5.5;6;5;24;female;ausbildung_student;abitur;5.0625;4;2;27;0.38558201;00:40:48.036;0.4285714;0.5714286;01:01:04.223;no;75;36;35;57;3;3;29;2;3;1;1;3;1;3;3;25;57;25;57;38;27384.857;0.4285714;00:55:50.893;no;80;29;39;37;2;3;33;2;2;1;1;3;1;3;2;4;45;53;50;53;30;0.5625;12960.297;0.125;8;0.4375;10466;0.578125;2494.29688;EO4;correct;Klempner;Schauspieler;Handballspieler;keine logische schlussfolgerung;nvc;7421;4;NVC;correct;Taenzer;Kellner;Gaertner;keine logische schlussfolgerung;nvc;34409;4;NVC;62;38;invalid;nvc;invalid;nvc;0
3;4;5;5.666667;3.333333;6.333333;5.666667;0.25;9067.25;5.5;6;5;24;female;ausbildung_student;abitur;5.0625;4;2;27;0.38558201;00:40:48.036;0.4285714;0.5714286;01:01:04.223;no;75;36;35;57;3;3;29;2;3;1;1;3;1;3;3;25;57;25;57;38;27384.857;0.4285714;00:55:50.893;no;80;29;39;37;2;3;33;2;2;1;1;3;1;3;2;4;45;53;50;53;30;0.5625;12960.297;0.125;8;0.4375;10466;0.578125;2494.29688;IA1;correct;Richter;Autoren;Wanderer;manche richter sind wanderer;iac;5882;1;Iac,Ica;correct;Eishockeyspieler;Dichter;Koeche;manche koeche sind eishockeyspieler;ica;17462;1;Iac,Ica;40;3;valid;no_nvc;valid;no_nvc;0
3;4;5;5.666667;3.333333;6.333333;5.666667;0.25;9067.25;5.5;6;5;24;female;ausbildung_student;abitur;5.0625;4;2;27;0.38558201;00:40:48.036;0.4285714;0.5714286;01:01:04.223;no;75;36;35;57;3;3;29;2;3;1;1;3;1;3;3;25;57;25;57;38;27384.857;0.4285714;00:55:50.893;no;80;29;39;37;2;3;33;2;2;1;1;3;1;3;2;4;45;53;50;53;30;0.5625;12960.297;0.125;8;0.4375;10466;0.578125;2494.29688;IA2;false;Schreiner;Wanderer;Toepfer;manche toepfer sind schreiner;ica;8654;2;NVC;false;Erzieher;Angler;Schlagzeuger;manche erzieher sind schlagzeuger;iac;16924;2;NVC;58;34;invalid;no_nvc;invalid;no_nvc;0
3;4;5;5.666667;3.333333;6.333333;5.666667;0.25;9067.25;5.5;6;5;24;female;ausbildung_student;abitur;5.0625;4;2;27;0.38558201;00:40:48.036;0.4285714;0.5714286;01:01:04.223;no;75;36;35;57;3;3;29;2;3;1;1;3;1;3;3;25;57;25;57;38;27384.857;0.4285714;00:55:50.893;no;80;29;39;37;2;3;33;2;2;1;1;3;1;3;2;4;45;53;50;53;30;0.5625;12960.297;0.125;8;0.4375;10466;0.578125;2494.29688;IA3;false;Kampfsportler;Mechaniker;Computerspieler;manche computerspieler sind kampfsportler;ica;13157;3;NVC;false;Heimwerker;Skifahrer;Schneider;manche schneider sind heimwerker;ica;8489;3;NVC;60;36;invalid;no_nvc;invalid;no_nvc;0
3;4;5;5.666667;3.333333;6.333333;5.666667;0.25;9067.25;5.5;6;5;24;female;ausbildung_student;abitur;5.0625;4;2;27;0.38558201;00:40:48.036;0.4285714;0.5714286;01:01:04.223;no;75;36;35;57;3;3;29;2;3;1;1;3;1;3;3;25;57;25;57;38;27384.857;0.4285714;00:55:50.893;no;80;29;39;37;2;3;33;2;2;1;1;3;1;3;2;4;45;53;50;53;30;0.5625;12960.297;0.125;8;0.4375;10466;0.578125;2494.29688;IA4;correct;Aerzte;Jaeger;Floetenspieler;manche floetenspieler sind aerzte;ica;6347;4;Iac,Ica;correct;Kampfsportler;Piloten;Kartenspieler;manche kartenspieler sind kampfsportler;ica;12091;4;Iac,Ica;7;62;valid;no_nvc;valid;no_nvc;0
3;4;5;5.666667;3.333333;6.333333;5.666667;0.25;9067.25;5.5;6;5;24;female;ausbildung_student;abitur;5.0625;4;2;27;0.38558201;00:40:48.036;0.4285714;0.5714286;01:01:04.223;no;75;36;35;57;3;3;29;2;3;1;1;3;1;3;3;25;57;25;57;38;27384.857;0.4285714;00:55:50.893;no;80;29;39;37;2;3;33;2;2;1;1;3;1;3;2;4;45;53;50;53;30;0.5625;12960.297;0.125;8;0.4375;10466;0.578125;2494.29688;IE1;correct;Turner;Sammler;Piloten;manche turner sind nicht piloten;oac;9990;1;Oac;correct;Tueftler;Surfer;Mechaniker;manche tueftler sind nicht mechaniker;oac;10021;1;Oac;39;14;valid;no_nvc;valid;no_nvc;0
3;4;5;5.666667;3.333333;6.333333;5.666667;0.25;9067.25;5.5;6;5;24;female;ausbildung_student;abitur;5.0625;4;2;27;0.38558201;00:40:48.036;0.4285714;0.5714286;01:01:04.223;no;75;36;35;57;3;3;29;2;3;1;1;3;1;3;3;25;57;25;57;38;27384.857;0.4285714;00:55:50.893;no;80;29;39;37;2;3;33;2;2;1;1;3;1;3;2;4;45;53;50;53;30;0.5625;12960.297;0.125;8;0.4375;10466;0.578125;2494.29688;IE2;false;Eishockeyspieler;Feinschmecker;Lehrer;keine lehrer sind eishockeyspieler;eca;21493;2;Oac;correct;Sprinter;Zeichner;Baecker;manche sprinter sind nicht baecker;oac;33789;2;Oac;57;17;valid;no_nvc;valid;no_nvc;0
3;4;5;5.666667;3.333333;6.333333;5.666667;0.25;9067.25;5.5;6;5;24;female;ausbildung_student;abitur;5.0625;4;2;27;0.38558201;00:40:48.036;0.4285714;0.5714286;01:01:04.223;no;75;36;35;57;3;3;29;2;3;1;1;3;1;3;3;25;57;25;57;38;27384.857;0.4285714;00:55:50.893;no;80;29;39;37;2;3;33;2;2;1;1;3;1;3;2;4;45;53;50;53;30;0.5625;12960.297;0.125;8;0.4375;10466;0.578125;2494.29688;IE3;correct;Kletterer;Techniker;Pianisten;manche kletterer sind nicht pianisten;oac;7926;3;Oac;correct;Computerspieler;Turner;Beamte;manche computerspieler sind nicht beamte;oac;13529;3;Oac;14;15;valid;no_nvc;valid;no_nvc;0
